,resp,rt,acc,onset,onseterror,duration,durationerror,trialtype,matchtype,letter,location1,location2,location3,location4,content,wm,dt,runnum, blocknum,trialnum,subj_idx,response
1,4$,0.964898781,0,11.99899357,-0.001006434,0.499960464,-3.95E-05,verbalInit,Match,T,845,579,945,679,verbal,yes,no,1,1,1,1,1
2,4$,0.969088613,1,15.49878673,-0.001213274,0.49997938,-2.06E-05,verbalBaseline1,NonMatch,B,1015,456,1115,556,verbal,yes,no,1,1,1,1,1
3,1!,0.570330631,1,19.39858205,-0.001417954,0.499960128,-3.99E-05,verbalBaseline1,Match,L,975,579,1075,679,verbal,yes,no,1,1,1,1,0
4,4$,1.003447997,1,23.29834423,-0.001655771,0.499996686,-3.31E-06,VerbalDelayTaskCue,NonMatch,B,910,380,1010,480,verbal,yes,no,1,1,1,1,1
5,1!,0.949519672,0,26.39818281,-0.001817195,0.499970207,-2.98E-05,VerbalDelayBack,NonMatch,E,975,579,1075,679,verbal,yes,no,1,1,1,1,0
6,4$,1.168772829,0,29.89798366,-0.002016337,0.499973628,-2.64E-05,VerbalDelayBack,Match,T,910,380,1010,480,verbal,yes,no,1,1,1,1,1
7,1!,1.145892164,1,32.99782399,-0.002176015,0.499971012,-2.90E-05,VerbalDelayBack,Match,A,1015,456,1115,556,verbal,yes,no,1,1,1,1,0
8,1!,1.127129101,0,36.89760476,-0.002395235,0.499960329,-3.97E-05,ReturnVerbalDelayBack,NonMatch,L,805,456,905,556,verbal,yes,no,1,1,1,1,0
9,1!,1.159274952,1,39.9974278,-0.002572204,0.499973913,-2.61E-05,verbalBaseline2,Match,E,1015,456,1115,556,verbal,yes,no,1,1,1,1,0
10,4$,1.09052824,1,46.59705271,-0.00294729,0.500092345,9.23E-05,spatialInit,NonMatch,L,975,579,1075,679,spatial,no,no,1,2,10,1,1
11,1!,0.848693808,1,50.4968382,-0.003161799,0.499973913,-2.61E-05,spatialBaseline1,Match,E,805,456,905,556,spatial,no,no,1,2,10,1,0
12,1!,1.975840406,0,53.99664629,-0.003353714,0.499969587,-3.04E-05,spatialBaseline1,NonMatch,T,975,579,1075,679,spatial,no,no,1,2,10,1,0
13,1!,0.869074765,1,57.09646917,-0.003530832,0.499975339,-2.47E-05,SpatialControlTaskCue,Match,B,805,456,905,556,spatial,no,no,1,2,10,1,0
14,1!,0.639186986,1,60.59628495,-0.003715049,0.499967356,-3.26E-05,SpatialControlBack,Match,L,1015,456,1115,556,spatial,no,no,1,2,10,1,0
15,4$,0.78741139,1,64.49607256,-0.003927443,0.499967506,-3.25E-05,SpatialControlBack,NonMatch,A,975,579,1075,679,spatial,no,no,1,2,10,1,1
16,4$,1.068568014,1,67.59588561,-0.00411439,0.49997933,-2.07E-05,ReturnSpatialControlBack,NonMatch,B,845,579,945,679,spatial,no,no,1,2,10,1,1
17,4$,0.83970507,1,70.69571906,-0.004280945,0.499980521,-1.95E-05,spatialBaseline2,NonMatch,E,805,456,905,556,spatial,no,no,1,2,10,1,1
18,1!,0.751932653,1,78.49529054,-0.004709457,0.49997762,-2.24E-05,verbalInit,Match,T,910,380,1010,480,verbal,yes,yes,1,3,18,1,0
19,4$,0.74712796,1,81.59511171,-0.004888287,0.499981091,-1.89E-05,verbalBaseline1,NonMatch,E,1015,456,1115,556,verbal,yes,yes,1,3,18,1,1
20,4$,1.315259498,1,85.09492753,-0.005072469,0.499958048,-4.20E-05,VerbalBranchTaskCue,NonMatch,A,805,456,905,556,verbal,yes,yes,1,3,18,1,1
21,4$,2.014522093,0,88.5947196,-0.0052804,0.499979145,-2.09E-05,VerbalBranchBack,Match,B,845,579,945,679,verbal,yes,yes,1,3,18,1,1
22,4$,1.577683985,1,92.09453235,-0.005467653,0.499971683,-2.83E-05,VerbalBranchBack,NonMatch,A,975,579,1075,679,verbal,yes,yes,1,3,18,1,1
23,4$,1.337745334,1,95.99431028,-0.005689724,0.499971633,-2.84E-05,VerbalBranchStart,NonMatch,B,910,380,1010,480,verbal,yes,yes,1,3,18,1,1
24,4$,1.055884747,1,99.89409443,-0.005905574,0.49997804,-2.20E-05,VerbalBranchStart,NonMatch,E,975,579,1075,679,verbal,yes,yes,1,3,18,1,1
25,4$,1.219099233,1,102.9939211,-0.006078936,0.499968396,-3.16E-05,ReturnVerbalBranchStart,NonMatch,L,1015,456,1115,556,verbal,yes,yes,1,3,18,1,1
26,1!,1.353319216,1,106.0937595,-0.006240509,0.49996516,-3.48E-05,verbalBaseline2,Match,E,910,380,1010,480,verbal,yes,yes,1,3,18,1,0
27,4$,0.866495799,1,109.5935578,-0.006442183,0.499969637,-3.04E-05,verbalBaseline2,NonMatch,L,975,579,1075,679,verbal,yes,yes,1,3,18,1,1
28,4$,0.875665141,1,115.7932095,-0.006790468,0.499970777,-2.92E-05,spatialInit,NonMatch,L,1015,456,1115,556,spatial,no,yes,1,4,28,1,1
29,4$,0.711935714,1,118.8930389,-0.006961115,0.499971532,-2.85E-05,spatialBaseline1,NonMatch,T,975,579,1075,679,spatial,no,yes,1,4,28,1,1
30,1!,0.853426706,1,122.8094854,0.009485381,0.499978275,-2.17E-05,SpatialSwitchTaskCue,Match,E,805,456,905,556,spatial,no,yes,1,4,28,1,0
31,1!,0.825539362,1,126.3092914,0.009291355,0.500097192,9.72E-05,SpatialSwitchStart,Match,T,910,380,1010,480,spatial,no,yes,1,4,28,1,0
32,1!,0.888631917,1,129.4091264,0.009126426,0.499974198,-2.58E-05,SpatialSwitchBack,Match,E,975,579,1075,679,spatial,no,yes,1,4,28,1,0
33,1!,0.946774392,1,132.9089321,0.00893213,0.499970492,-2.95E-05,SpatialSwitchStart,Match,B,910,380,1010,480,spatial,no,yes,1,4,28,1,0
34,4$,1.023997482,1,136.0087611,0.008761098,0.499968782,-3.12E-05,SpatialSwitchBack,NonMatch,E,845,579,945,679,spatial,no,yes,1,4,28,1,1
35,4$,0.909192487,1,139.5085631,0.008563096,0.49996427,-3.57E-05,ReturnSpatialSwitchStart,NonMatch,B,975,579,1075,679,spatial,no,yes,1,4,28,1,1
36,1!,0.770360003,1,143.0083686,0.008368616,0.499974198,-2.58E-05,spatialBaseline2,Match,E,805,456,905,556,spatial,no,yes,1,4,28,1,0
37,1!,0.502532197,1,146.5081773,0.008177306,0.499968011,-3.20E-05,spatialBaseline2,Match,L,1015,456,1115,556,spatial,no,yes,1,4,28,1,0
38,1!,0.870758702,1,153.1078001,0.007800054,0.499982987,-1.70E-05,verbalInit,Match,T,805,456,905,556,verbal,yes,no,1,5,38,1,0
39,1!,0.470909976,1,156.6076157,0.007615737,0.499967356,-3.26E-05,verbalBaseline1,Match,A,1015,456,1115,556,verbal,yes,no,1,5,38,1,0
40,1!,0.766069831,1,159.7074502,0.007450207,0.49996556,-3.44E-05,verbalBaseline1,Match,B,975,579,1075,679,verbal,yes,no,1,5,38,1,0
41,1!,0.893234104,1,163.6072208,0.007220773,0.499973913,-2.61E-05,VerbalDelayTaskCue,Match,L,1015,456,1115,556,verbal,yes,no,1,5,38,1,0
42,4$,1.575379435,1,167.506996,0.006995986,0.499975054,-2.49E-05,VerbalDelayBack,NonMatch,B,805,456,905,556,verbal,yes,no,1,5,38,1,1
43,1!,0.644559579,1,170.6068361,0.006836058,0.499970422,-2.96E-05,VerbalDelayBack,Match,L,1015,456,1115,556,verbal,yes,no,1,5,38,1,0
44,1!,1.147683349,1,173.706663,0.006662961,0.499974769,-2.52E-05,VerbalDelayBack,Match,E,805,456,905,556,verbal,yes,no,1,5,38,1,0
45,1!,1.31188034,1,176.8064824,0.006482421,0.499981996,-1.80E-05,VerbalDelayBack,Match,T,975,579,1075,679,verbal,yes,no,1,5,38,1,0
46,4$,0.93599561,1,180.3062979,0.006297918,0.499971347,-2.87E-05,ReturnVerbalDelayStart,NonMatch,L,1015,456,1115,556,verbal,yes,no,1,5,38,1,1
47,4$,1.621131591,1,184.2060786,0.006078598,0.499965881,-3.41E-05,verbalBaseline2,NonMatch,T,845,579,945,679,verbal,yes,no,1,5,38,1,1
48,4$,0.828378375,1,188.1058547,0.005854716,0.499975959,-2.40E-05,verbalBaseline2,NonMatch,B,1015,456,1115,556,verbal,yes,no,1,5,38,1,1
49,1!,0.778782668,1,195.5054514,0.005451378,0.499979885,-2.01E-05,spatialInit,Match,B,910,380,1010,480,spatial,yes,yes,1,6,49,1,0
50,4$,0.81883156,1,198.6052897,0.00528974,0.499967036,-3.30E-05,spatialBaseline1,NonMatch,E,1015,456,1115,556,spatial,yes,yes,1,6,49,1,1
51,1!,1.724884193,1,201.7051076,0.005107604,0.499975574,-2.44E-05,SpatialBranchTaskCue,Match,A,845,579,945,679,spatial,yes,yes,1,6,49,1,0
52,4$,1.590211857,1,204.8049341,0.004934142,0.499966116,-3.39E-05,SpatialBranchStart,NonMatch,L,1015,456,1115,556,spatial,yes,yes,1,6,49,1,1
53,1!,0.844268903,1,207.9047682,0.004768242,0.499964555,-3.54E-05,SpatialBranchStart,Match,T,910,380,1010,480,spatial,yes,yes,1,6,49,1,0
54,4$,1.685474576,1,211.8045396,0.004539648,0.499980471,-1.95E-05,ReturnSpatialBranchBack,NonMatch,B,805,456,905,556,spatial,yes,yes,1,6,49,1,1
55,1!,0.855637373,1,215.7043293,0.004329316,0.499972538,-2.75E-05,spatialBaseline2,Match,A,1015,456,1115,556,spatial,yes,yes,1,6,49,1,0
56,4$,1.007762788,1,218.8041638,0.004163751,0.499964975,-3.50E-05,spatialBaseline2,NonMatch,T,910,380,1010,480,spatial,yes,yes,1,6,49,1,1
57,4$,0.762120473,1,226.2037451,0.003745053,0.49997995,-2.00E-05,verbalInit,NonMatch,E,975,579,1075,679,verbal,no,no,1,7,57,1,1
58,4$,1.372282855,0,229.7035498,0.003549802,0.499973158,-2.68E-05,verbalBaseline1,Match,T,910,380,1010,480,verbal,no,no,1,7,57,1,1
59,1!,0.619416729,1,233.2033659,0.003365855,0.499962374,-3.76E-05,VerbalControlTaskCue,Match,A,975,579,1075,679,verbal,no,no,1,7,57,1,0
60,1!,0.765611995,1,236.7031711,0.003171104,0.499968396,-3.16E-05,VerbalControlBack,Match,B,805,456,905,556,verbal,no,no,1,7,57,1,0
61,4$,0.675703187,1,239.802988,0.002987998,0.499973343,-2.67E-05,VerbalControlBack,NonMatch,T,910,380,1010,480,verbal,no,no,1,7,57,1,1
62,1!,0.669900073,1,242.9028123,0.002812305,0.499974113,-2.59E-05,VerbalControlBack,Match,A,975,579,1075,679,verbal,no,no,1,7,57,1,0
63,1!,0.595121802,1,246.0026443,0.002644324,0.49997995,-2.00E-05,VerbalControlBack,Match,B,845,579,945,679,verbal,no,no,1,7,57,1,0
64,1!,0.442296181,1,249.9024276,0.002427569,0.499977905,-2.21E-05,ReturnVerbalControlBack,Match,L,1015,456,1115,556,verbal,no,no,1,7,57,1,0
65,4$,0.674468888,1,253.802222,0.002222034,0.499950855,-4.91E-05,verbalBaseline2,NonMatch,T,975,579,1075,679,verbal,no,no,1,7,57,1,1
66,4$,1.127563829,1,257.7019913,0.001991309,0.499984177,-1.58E-05,verbalBaseline2,NonMatch,B,910,380,1010,480,verbal,no,no,1,7,57,1,1
67,4$,1.016892031,1,264.7016035,0.001603473,0.499968732,-3.13E-05,spatialInit,NonMatch,A,845,579,945,679,spatial,yes,yes,1,8,67,1,1
68,4$,1.182060829,1,268.6013976,0.001397602,0.499972303,-2.77E-05,spatialBaseline1,NonMatch,B,1015,456,1115,556,spatial,yes,yes,1,8,67,1,1
69,4$,1.297204808,1,272.1011999,0.001199885,0.499976579,-2.34E-05,SpatialBranchTaskCue,NonMatch,T,805,456,905,556,spatial,yes,yes,1,8,67,1,1
70,1!,1.196412016,1,276.0009802,0.000980229,0.499969837,-3.02E-05,SpatialBranchBack,Match,E,1015,456,1115,556,spatial,yes,yes,1,8,67,1,0
71,1!,1.105594915,1,279.9007608,0.000760824,0.499972203,-2.78E-05,SpatialBranchBack,Match,B,845,579,945,679,spatial,yes,yes,1,8,67,1,0
72,4$,0.919855283,1,283.8005427,0.000542694,0.499980991,-1.90E-05,ReturnSpatialBranchBack,NonMatch,T,805,456,905,556,spatial,yes,yes,1,8,67,1,1
73,4$,1.059029217,1,287.7003277,0.0003277,0.499972773,-2.72E-05,spatialBaseline2,NonMatch,A,975,579,1075,679,spatial,yes,yes,1,8,67,1,1
74,4$,1.091275288,1,294.299966,-3.40E-05,0.49996494,-3.51E-05,verbalInit,NonMatch,E,845,579,945,679,verbal,no,yes,1,9,74,1,1
75,1!,0.462415851,1,297.3997881,-0.000211896,0.499969402,-3.06E-05,verbalBaseline1,Match,T,910,380,1010,480,verbal,no,yes,1,9,74,1,0
76,4$,0.655561329,1,301.2995733,-0.000426689,0.499971918,-2.81E-05,verbalBaseline1,NonMatch,E,975,579,1075,679,verbal,no,yes,1,9,74,1,1
77,4$,0.762745497,1,304.7993874,-0.000612617,0.499964405,-3.56E-05,VerbalSwitchTaskCue,NonMatch,B,1015,456,1115,556,verbal,no,yes,1,9,74,1,1
78,4$,0.629911537,1,308.2991849,-0.000815096,0.499969922,-3.01E-05,VerbalSwitchStart,NonMatch,E,975,579,1075,679,verbal,no,yes,1,9,74,1,1
79,4$,1.353142604,0,311.7989943,-0.001005735,0.499979715,-2.03E-05,VerbalSwitchBack,Match,T,910,380,1010,480,verbal,no,yes,1,9,74,1,1
80,4$,1.441295865,0,314.8988135,-0.00118646,0.49997762,-2.24E-05,VerbalSwitchStart,Match,T,975,579,1075,679,verbal,no,yes,1,9,74,1,1
81,4$,0.982436298,0,317.9986427,-0.001357257,0.499973058,-2.69E-05,VerbalSwitchBack,Match,A,1015,456,1115,556,verbal,no,yes,1,9,74,1,1
82,1!,0.879499418,1,321.4984573,-0.00154268,0.499974484,-2.55E-05,ReturnVerbalSwitchBack,Match,B,910,380,1010,480,verbal,no,yes,1,9,74,1,0
83,1!,1.382628755,1,324.5982761,-0.00172391,0.499987933,-1.21E-05,verbalBaseline2,Match,L,805,456,905,556,verbal,no,yes,1,9,74,1,0
84,1!,0.86001024,1,330.7979434,-0.002056615,0.499964455,-3.55E-05,spatialInit,Match,A,910,380,1010,480,spatial,yes,no,1,10,84,1,0
85,4$,0.749088779,1,333.8977707,-0.002229257,0.499973628,-2.64E-05,spatialBaseline1,NonMatch,E,845,579,945,679,spatial,yes,no,1,10,84,1,1
86,4$,1.419212005,1,336.9975973,-0.002402669,0.499965695,-3.43E-05,spatialBaseline1,NonMatch,L,1015,456,1115,556,spatial,yes,no,1,10,84,1,1
87,1!,0.940398747,1,340.4974002,-0.002599766,0.499967491,-3.25E-05,SpatialDelayTaskCue,Match,T,845,579,945,679,spatial,yes,no,1,10,84,1,0
88,4$,0.972427186,0,344.3973073,-0.002692737,0.499857442,-0.000142558,SpatialDelayBack,Match,B,910,380,1010,480,spatial,yes,no,1,10,84,1,1
89,1!,0.54374789,1,348.2969646,-0.003035356,0.499970492,-2.95E-05,SpatialDelayBack,Match,A,975,579,1075,679,spatial,yes,no,1,10,84,1,0
90,1!,0.559958501,1,352.1967513,-0.00324874,0.49996536,-3.46E-05,SpatialDelayBack,Match,E,805,456,905,556,spatial,yes,no,1,10,84,1,0
91,4$,0.812109553,1,356.0965321,-0.00346791,0.499983842,-1.62E-05,SpatialDelayBack,NonMatch,B,910,380,1010,480,spatial,yes,no,1,10,84,1,1
92,1!,1.216236307,0,359.1963661,-0.00363391,0.499960128,-3.99E-05,ReturnSpatialDelayBack,NonMatch,E,1015,456,1115,556,spatial,yes,no,1,10,84,1,0
93,1!,1.272342647,1,362.2961865,-0.003813545,0.499971012,-2.90E-05,spatialBaseline2,Match,T,845,579,945,679,spatial,yes,no,1,10,84,1,0
94,1!,0.97556773,1,366.1959776,-0.004022382,0.499972033,-2.80E-05,spatialBaseline2,Match,E,910,380,1010,480,spatial,yes,no,1,10,84,1,0
95,4$,1.116890249,1,373.9955396,-0.004460422,0.499968782,-3.12E-05,spatialInit,NonMatch,B,1015,456,1115,556,spatial,no,yes,1,11,95,1,1
96,4$,1.084133143,1,377.8953174,-0.004682594,0.499973058,-2.69E-05,spatialBaseline1,NonMatch,T,975,579,1075,679,spatial,no,yes,1,11,95,1,1
97,4$,0.973251511,1,381.795108,-0.004891986,0.499973343,-2.67E-05,SpatialSwitchTaskCue,NonMatch,B,845,579,945,679,spatial,no,yes,1,11,95,1,1
98,4$,1.018544856,1,385.6948947,-0.00510532,0.499966736,-3.33E-05,SpatialSwitchStart,NonMatch,T,1015,456,1115,556,spatial,no,yes,1,11,95,1,1
99,4$,0.797698224,1,389.1946944,-0.005305552,0.499969922,-3.01E-05,SpatialSwitchBack,NonMatch,B,805,456,905,556,spatial,no,yes,1,11,95,1,1
100,4$,0.962809482,1,393.0944714,-0.005528579,0.499983187,-1.68E-05,SpatialSwitchBack,NonMatch,A,975,579,1075,679,spatial,no,yes,1,11,95,1,1
101,1!,0.548956485,1,396.1943074,-0.005692618,0.499966886,-3.31E-05,ReturnSpatialSwitchBack,Match,E,805,456,905,556,spatial,no,yes,1,11,95,1,0
102,4$,1.294198897,1,399.6941129,-0.005887149,0.499972488,-2.75E-05,spatialBaseline2,NonMatch,L,975,579,1075,679,spatial,no,yes,1,11,95,1,1
103,1!,1.034442798,1,407.0937055,-0.006294543,0.499971918,-2.81E-05,verbalInit,Match,T,845,579,945,679,verbal,yes,yes,1,12,103,1,0
104,1!,1.042621517,1,410.5935068,-0.006493166,0.499971683,-2.83E-05,verbalBaseline1,Match,A,975,579,1075,679,verbal,yes,yes,1,12,103,1,0
105,4$,1.309777341,1,413.69333,-0.006670034,0.49997913,-2.09E-05,verbalBaseline1,NonMatch,L,805,456,905,556,verbal,yes,yes,1,12,103,1,1
106,1!,1.026887023,0,417.1931422,-0.006857823,0.499976714,-2.33E-05,VerbalBranchTaskCue,NonMatch,T,910,380,1010,480,verbal,yes,yes,1,12,103,1,0
107,4$,1.25139206,1,420.3096301,0.009630069,0.483308382,-0.016691618,VerbalBranchStart,NonMatch,E,975,579,1075,679,verbal,yes,yes,1,12,103,1,1
108,4$,1.007549298,1,424.2094319,0.009431896,0.49995112,-4.89E-05,VerbalBranchStart,NonMatch,A,845,579,945,679,verbal,yes,yes,1,12,103,1,1
109,1!,1.610721964,1,427.7092306,0.009230573,0.499958803,-4.12E-05,ReturnVerbalBranchBack,Match,B,1015,456,1115,556,verbal,yes,yes,1,12,103,1,0
110,1!,0.788893325,1,431.2090357,0.009035707,0.499972203,-2.78E-05,verbalBaseline2,Match,L,805,456,905,556,verbal,yes,yes,1,12,103,1,0
111,4$,0.887219966,1,438.2086473,0.00864725,0.499972823,-2.72E-05,verbalInit,NonMatch,A,975,579,1075,679,verbal,no,no,1,13,111,1,1
112,1!,0.926325297,1,441.7084557,0.008455671,0.499955802,-4.42E-05,verbalBaseline1,Match,B,805,456,905,556,verbal,no,no,1,13,111,1,0
113,4$,1.079547207,1,445.2082666,0.008266557,0.500084767,8.48E-05,verbalBaseline1,NonMatch,A,845,579,945,679,verbal,no,no,1,13,111,1,1
114,1!,0.576664466,0,448.3080869,0.008086922,0.499968311,-3.17E-05,VerbalControlTaskCue,NonMatch,L,1015,456,1115,556,verbal,no,no,1,13,111,1,0
115,1!,0.583810402,1,452.2078706,0.007870603,0.499972203,-2.78E-05,VerbalControlBack,Match,E,975,579,1075,679,verbal,no,no,1,13,111,1,0
116,1!,0.560976444,1,455.3076961,0.00769615,0.499973913,-2.61E-05,VerbalControlBack,Match,T,805,456,905,556,verbal,no,no,1,13,111,1,0
117,4$,1.085165761,1,458.4075218,0.007521847,0.499972003,-2.80E-05,ReturnVerbalControlBack,NonMatch,B,910,380,1010,480,verbal,no,no,1,13,111,1,1
118,4$,0.747317836,1,462.3073111,0.007311064,0.499960749,-3.93E-05,verbalBaseline2,NonMatch,E,975,579,1075,679,verbal,no,no,1,13,111,1,1
119,4$,0.789441203,1,465.8071121,0.007112107,0.499969722,-3.03E-05,verbalBaseline2,NonMatch,L,910,380,1010,480,verbal,no,no,1,13,111,1,1
120,1!,0.757810563,1,472.8067283,0.006728277,0.499971633,-2.84E-05,spatialInit,Match,L,910,380,1010,480,spatial,yes,no,1,14,120,1,0
121,1!,0.523991168,1,476.3065242,0.006524188,0.499976294,-2.37E-05,spatialBaseline1,Match,T,975,579,1075,679,spatial,yes,no,1,14,120,1,0
122,4$,1.009156022,1,480.2063193,0.006319272,0.499972203,-2.78E-05,spatialBaseline1,NonMatch,L,910,380,1010,480,spatial,yes,no,1,14,120,1,1
123,4$,1.173326214,1,484.1060942,0.0060942,0.499975054,-2.49E-05,SpatialDelayTaskCue,NonMatch,E,845,579,945,679,spatial,yes,no,1,14,120,1,1
124,1!,0.582459563,1,488.00589,0.00588999,0.49996417,-3.58E-05,SpatialDelayBack,Match,A,910,380,1010,480,spatial,yes,no,1,14,120,1,0
125,1!,0.891638969,1,491.1057036,0.005703613,0.499973158,-2.68E-05,SpatialDelayBack,Match,T,975,579,1075,679,spatial,yes,no,1,14,120,1,0
126,1!,0.856814552,1,494.6055082,0.005508176,0.499981996,-1.80E-05,ReturnSpatialDelayStart,Match,E,910,380,1010,480,spatial,yes,no,1,14,120,1,0
127,4$,1.164947255,1,497.705345,0.005344993,0.499969352,-3.06E-05,spatialBaseline2,NonMatch,B,845,579,945,679,spatial,yes,no,1,14,120,1,1
128,4$,1.606194758,1,504.3049811,0.004981141,0.499972773,-2.72E-05,verbalInit,NonMatch,B,1015,456,1115,556,verbal,no,yes,1,15,128,1,1
129,4$,1.142482316,0,507.8047887,0.004788691,0.499974484,-2.55E-05,verbalBaseline1,Match,L,805,456,905,556,verbal,no,yes,1,15,128,1,1
130,4$,1.520572616,0,511.3045934,0.004593404,0.499973628,-2.64E-05,VerbalSwitchTaskCue,Match,E,975,579,1075,679,verbal,no,yes,1,15,128,1,1
131,4$,1.198752539,0,515.2043751,0.004375124,0.499971062,-2.89E-05,VerbalSwitchBack,Match,T,845,579,945,679,verbal,no,yes,1,15,128,1,1
132,4$,0.811975086,0,518.3042018,0.004201812,0.499972203,-2.78E-05,VerbalSwitchStart,Match,T,1015,456,1115,556,verbal,no,yes,1,15,128,1,1
133,1!,0.927019851,0,521.4040282,0.004028214,0.499974484,-2.55E-05,VerbalSwitchStart,NonMatch,A,845,579,945,679,verbal,no,yes,1,15,128,1,0
134,4$,0.881223454,0,524.9038401,0.003840091,0.499959373,-4.06E-05,ReturnVerbalSwitchStart,Match,T,1015,456,1115,556,verbal,no,yes,1,15,128,1,1
135,4$,1.092434505,1,528.4036407,0.003640663,0.499972588,-2.74E-05,verbalBaseline2,NonMatch,E,805,456,905,556,verbal,no,yes,1,15,128,1,1
136,1!,0.887781178,1,535.8032272,0.003227247,0.499976194,-2.38E-05,spatialInit,Match,A,910,380,1010,480,spatial,no,no,1,16,136,1,0
137,1!,1.02780528,1,539.7030214,0.003021376,0.499959038,-4.10E-05,spatialBaseline1,Match,E,975,579,1075,679,spatial,no,no,1,16,136,1,0
138,4$,1.084068996,1,543.6027924,0.002792362,0.49997886,-2.11E-05,spatialBaseline1,NonMatch,T,1015,456,1115,556,spatial,no,no,1,16,136,1,1
139,4$,0.964248753,1,547.5025783,0.002578273,0.499969487,-3.05E-05,SpatialControlTaskCue,NonMatch,E,805,456,905,556,spatial,no,no,1,16,136,1,1
140,4$,0.964429421,1,551.4023602,0.002360228,0.499976579,-2.34E-05,SpatialControlBack,NonMatch,B,975,579,1075,679,spatial,no,no,1,16,136,1,1
141,1!,0.726562678,1,554.9021773,0.002177302,0.499961939,-3.81E-05,SpatialControlBack,Match,L,805,456,905,556,spatial,no,no,1,16,136,1,0
142,4$,1.000672531,1,558.0019949,0.001994866,0.499973628,-2.64E-05,SpatialControlBack,NonMatch,A,845,579,945,679,spatial,no,no,1,16,136,1,1
143,1!,0.540937087,1,561.9017796,0.001779587,0.499970492,-2.95E-05,ReturnSpatialControlBack,Match,E,910,380,1010,480,spatial,no,no,1,16,136,1,0
144,1!,0.723067735,1,565.001611,0.001611021,0.499974534,-2.55E-05,spatialBaseline2,Match,T,975,579,1075,679,spatial,no,no,1,16,136,1,0
145,4$,0.944775135,1,11.99808566,-0.001914343,0.49997829,-2.17E-05,verbalInit,NonMatch,B,845,579,945,679,verbal,yes,no,2,1,1,1,1
146,1!,0.572937687,1,15.49789517,-0.002104832,0.49997943,-2.06E-05,verbalBaseline1,Match,L,1015,456,1115,556,verbal,yes,no,2,1,1,1,0
147,1!,0.86701193,1,18.99770803,-0.002291965,0.499966466,-3.35E-05,VerbalDelayTaskCue,Match,E,845,579,945,679,verbal,yes,no,2,1,1,1,0
148,4$,0.930279972,1,22.49750629,-0.002493709,0.499972388,-2.76E-05,VerbalDelayBack,NonMatch,A,975,579,1075,679,verbal,yes,no,2,1,1,1,1
149,1!,0.515433701,1,26.39729001,-0.002709993,0.499975339,-2.47E-05,VerbalDelayBack,Match,B,845,579,945,679,verbal,yes,no,2,1,1,1,0
150,1!,0.707459356,1,29.49723972,-0.002760277,0.499849039,-0.000150961,VerbalDelayBack,Match,L,975,579,1075,679,verbal,yes,no,2,1,1,1,0
151,4$,0.82375561,1,32.99692208,-0.003077922,0.499970207,-2.98E-05,VerbalDelayBack,NonMatch,B,1015,456,1115,556,verbal,yes,no,2,1,1,1,1
152,1!,1.767842618,1,36.49672493,-0.003275068,0.499975054,-2.49E-05,ReturnVerbalDelayBack,Match,L,805,456,905,556,verbal,yes,no,2,1,1,1,0
153,4$,1.292057175,1,40.39651165,-0.003488352,0.499981661,-1.83E-05,verbalBaseline2,NonMatch,T,910,380,1010,480,verbal,yes,no,2,1,1,1,1
154,1!,1.137206117,1,43.49634578,-0.003654217,0.499966466,-3.35E-05,verbalBaseline2,Match,A,845,579,945,679,verbal,yes,no,2,1,1,1,0
155,1!,0.74254732,1,50.49594354,-0.004056458,0.50009206,9.21E-05,spatialInit,Match,B,910,380,1010,480,spatial,no,no,2,2,11,1,0
156,1!,0.51170387,1,54.39572866,-0.004271337,0.49997762,-2.24E-05,spatialBaseline1,Match,E,975,579,1075,679,spatial,no,no,2,2,11,1,0
157,4$,0.868970888,1,57.89553522,-0.004464777,0.499971532,-2.85E-05,SpatialControlTaskCue,NonMatch,L,845,579,945,679,spatial,no,no,2,2,11,1,1
158,1!,0.901140737,1,61.79532622,-0.004673784,0.499966401,-3.36E-05,SpatialControlBack,Match,B,910,380,1010,480,spatial,no,no,2,2,11,1,0
159,1!,0.571259117,1,65.6950963,-0.004903704,0.499974198,-2.58E-05,SpatialControlBack,Match,T,975,579,1075,679,spatial,no,no,2,2,11,1,0
160,1!,0.567430557,1,69.59488695,-0.005113046,0.499971212,-2.88E-05,ReturnSpatialControlBack,Match,E,805,456,905,556,spatial,no,no,2,2,11,1,0
161,1!,0.453545714,1,73.0946911,-0.005308902,0.499982801,-1.72E-05,spatialBaseline2,Match,L,1015,456,1115,556,spatial,no,no,2,2,11,1,0
162,1!,0.951863716,1,79.29435707,-0.005642932,0.499966401,-3.36E-05,verbalInit,Match,T,975,579,1075,679,verbal,yes,yes,2,3,18,1,0
163,4$,1.051057766,1,83.1941301,-0.005869901,0.499971397,-2.86E-05,verbalBaseline1,NonMatch,E,845,579,945,679,verbal,yes,yes,2,3,18,1,1
164,4$,1.065232997,1,87.09390935,-0.006090647,0.499984612,-1.54E-05,verbalBaseline1,NonMatch,B,805,456,905,556,verbal,yes,yes,2,3,18,1,1
165,1!,1.008314792,0,90.59371102,-0.006288984,0.499981326,-1.87E-05,VerbalBranchTaskCue,NonMatch,T,845,579,945,679,verbal,yes,yes,2,3,18,1,0
166,4$,0.954440401,1,93.69367727,-0.006322732,0.49983621,-0.00016379,VerbalBranchBack,NonMatch,E,1015,456,1115,556,verbal,yes,yes,2,3,18,1,1
167,4$,1.388690605,1,97.19335709,-0.006642907,0.499973913,-2.61E-05,VerbalBranchStart,NonMatch,B,975,579,1075,679,verbal,yes,yes,2,3,18,1,1
168,1!,1.13183535,1,100.6931488,-0.006851223,0.499982381,-1.76E-05,ReturnVerbalBranchStart,Match,T,805,456,905,556,verbal,yes,yes,2,3,18,1,0
169,4$,0.815009152,1,103.7929792,-0.007020759,0.516642996,0.016642996,verbalBaseline2,NonMatch,B,1015,456,1115,556,verbal,yes,yes,2,3,18,1,1
170,4$,0.889209645,1,106.892815,-0.007184983,0.516639829,0.016639829,verbalBaseline2,NonMatch,A,805,456,905,556,verbal,yes,yes,2,3,18,1,1
171,1!,0.753765042,1,113.1091405,0.009140545,0.499969402,-3.06E-05,verbalInit,Match,T,805,456,905,556,verbal,yes,no,2,4,27,1,0
172,1!,0.764907042,1,116.2089672,0.008967233,0.499970827,-2.92E-05,verbalBaseline1,Match,A,845,579,945,679,verbal,yes,no,2,4,27,1,0
173,1!,0.647063113,1,119.3087954,0.008795396,0.499970777,-2.92E-05,VerbalDelayTaskCue,Match,B,1015,456,1115,556,verbal,yes,no,2,4,27,1,0
174,1!,1.098182595,1,122.4086206,0.008620608,0.499974198,-2.58E-05,VerbalDelayBack,Match,L,975,579,1075,679,verbal,yes,no,2,4,27,1,0
175,4$,0.826309738,1,125.9084279,0.008427923,0.499967356,-3.26E-05,VerbalDelayBack,NonMatch,T,1015,456,1115,556,verbal,yes,no,2,4,27,1,1
176,4$,0.767544569,1,129.4082234,0.008223398,0.49997871,-2.13E-05,ReturnVerbalDelayBack,NonMatch,L,805,456,905,556,verbal,yes,no,2,4,27,1,1
177,1!,1.295685695,0,132.9080289,0.008028933,0.499976764,-2.32E-05,verbalBaseline2,NonMatch,B,845,579,945,679,verbal,yes,no,2,4,27,1,0
178,4$,1.069068585,1,139.9076496,0.007649564,0.499967926,-3.21E-05,spatialInit,NonMatch,A,805,456,905,556,spatial,no,yes,2,5,34,1,1
179,1!,1.123119923,1,143.4074452,0.00744524,0.499977234,-2.28E-05,spatialBaseline1,Match,T,1015,456,1115,556,spatial,no,yes,2,5,34,1,0
180,4$,1.154336126,1,147.3072328,0.007232797,0.499973578,-2.64E-05,spatialBaseline1,NonMatch,L,975,579,1075,679,spatial,no,yes,2,5,34,1,1
181,1!,0.811536332,1,150.8070401,0.007040112,0.499970777,-2.92E-05,SpatialSwitchTaskCue,Match,A,805,456,905,556,spatial,no,yes,2,5,34,1,0
182,4$,0.922732599,1,153.9068622,0.006862168,0.499968246,-3.18E-05,SpatialSwitchBack,NonMatch,T,910,380,1010,480,spatial,no,yes,2,5,34,1,1
183,4$,1.292846902,1,157.8066471,0.006647074,0.499970157,-2.98E-05,SpatialSwitchStart,NonMatch,L,845,579,945,679,spatial,no,yes,2,5,34,1,1
184,1!,0.652912514,1,160.9064757,0.006475707,0.499975624,-2.44E-05,SpatialSwitchStart,Match,E,910,380,1010,480,spatial,no,yes,2,5,34,1,0
185,4$,1.201144529,1,164.8062587,0.006258667,0.499971347,-2.87E-05,SpatialSwitchBack,NonMatch,A,805,456,905,556,spatial,no,yes,2,5,34,1,1
186,4$,0.949290502,1,167.906091,0.006091007,0.499972203,-2.78E-05,ReturnSpatialSwitchStart,NonMatch,T,1015,456,1115,556,spatial,no,yes,2,5,34,1,1
187,1!,0.755446713,1,171.005907,0.005907046,0.499980471,-1.95E-05,spatialBaseline2,Match,A,845,579,945,679,spatial,no,yes,2,5,34,1,0
188,4$,0.679656051,1,174.1057459,0.005745907,0.499976429,-2.36E-05,spatialBaseline2,NonMatch,L,1015,456,1115,556,spatial,no,yes,2,5,34,1,1
189,4$,1.018013615,1,181.9053133,0.005313253,0.499971633,-2.84E-05,spatialInit,NonMatch,A,975,579,1075,679,spatial,yes,no,2,6,45,1,1
190,1!,0.553112626,1,185.4051125,0.0051125,0.499975774,-2.42E-05,spatialBaseline1,Match,B,805,456,905,556,spatial,yes,no,2,6,45,1,0
191,1!,0.607262978,1,188.9049232,0.004923201,0.499974719,-2.53E-05,spatialBaseline1,Match,L,1015,456,1115,556,spatial,yes,no,2,6,45,1,0
192,1!,0.386438599,1,192.8047034,0.004703396,0.499975189,-2.48E-05,SpatialDelayTaskCue,Match,T,845,579,945,679,spatial,yes,no,2,6,45,1,0
193,4$,0.702598818,1,196.3045173,0.004517283,0.499962979,-3.70E-05,SpatialDelayBack,NonMatch,B,975,579,1075,679,spatial,yes,no,2,6,45,1,1
194,4$,0.829724233,1,199.4043399,0.004339879,0.499971397,-2.86E-05,SpatialDelayBack,NonMatch,E,845,579,945,679,spatial,yes,no,2,6,45,1,1
195,1!,0.464911198,1,202.9041481,0.004148134,0.499973358,-2.66E-05,SpatialDelayBack,Match,T,910,380,1010,480,spatial,yes,no,2,6,45,1,0
196,4$,0.79906632,1,206.0039751,0.003975072,0.499978845,-2.12E-05,SpatialDelayBack,NonMatch,A,805,456,905,556,spatial,yes,no,2,6,45,1,1
197,1!,0.888209784,1,209.9037503,0.003750334,0.499968446,-3.16E-05,ReturnSpatialDelayBack,Match,E,1015,456,1115,556,spatial,yes,no,2,6,45,1,0
198,4$,0.750350212,1,213.8035347,0.00353472,0.499966736,-3.33E-05,spatialBaseline2,NonMatch,L,975,579,1075,679,spatial,yes,no,2,6,45,1,1
199,1!,0.820754176,1,221.2031224,0.003122394,0.499971918,-2.81E-05,verbalInit,Match,T,975,579,1075,679,verbal,no,yes,2,7,55,1,0
200,1!,0.620934872,1,225.1029063,0.00290626,0.499968967,-3.10E-05,verbalBaseline1,Match,A,845,579,945,679,verbal,no,yes,2,7,55,1,0
201,4$,1.728040167,1,228.2027352,0.002735228,0.499971633,-2.84E-05,verbalBaseline1,NonMatch,L,910,380,1010,480,verbal,no,yes,2,7,55,1,1
202,1!,1.046178091,1,231.7025469,0.002546869,0.499978005,-2.20E-05,VerbalSwitchTaskCue,Match,E,805,456,905,556,verbal,no,yes,2,7,55,1,0
203,4$,1.105370506,0,235.2023621,0.002362067,0.499965645,-3.44E-05,VerbalSwitchBack,Match,T,975,579,1075,679,verbal,no,yes,2,7,55,1,1
204,1!,0.917390207,1,238.3022889,0.00228889,0.499854741,-0.000145259,VerbalSwitchBack,Match,A,910,380,1010,480,verbal,no,yes,2,7,55,1,0
205,4$,1.07673954,1,242.2019556,0.001955579,0.499973058,-2.69E-05,VerbalSwitchBack,NonMatch,L,845,579,945,679,verbal,no,yes,2,7,55,1,1
206,4$,1.147918792,1,246.1017409,0.00174087,0.499971347,-2.87E-05,ReturnVerbalSwitchBack,NonMatch,B,805,456,905,556,verbal,no,yes,2,7,55,1,1
207,4$,1.668990453,1,249.6015588,0.001558784,0.499970492,-2.95E-05,verbalBaseline2,NonMatch,A,975,579,1075,679,verbal,no,yes,2,7,55,1,1
208,4$,1.073241226,1,253.5013377,0.001337702,0.499972253,-2.77E-05,verbalBaseline2,NonMatch,T,805,456,905,556,verbal,no,yes,2,7,55,1,1
209,4$,0.925327446,1,260.501067,0.001066957,0.499854741,-0.000145259,spatialInit,NonMatch,T,805,456,905,556,spatial,yes,yes,2,8,65,1,1
210,4$,0.789702825,0,263.6007729,0.000772948,0.499965125,-3.49E-05,spatialBaseline1,Match,L,1015,456,1115,556,spatial,yes,yes,2,8,65,1,1
211,1!,1.359831574,1,266.700594,0.000593983,0.499983087,-1.69E-05,SpatialBranchTaskCue,Match,T,845,579,945,679,spatial,yes,yes,2,8,65,1,0
212,1!,0.524020148,1,270.6003904,0.000390443,0.499972773,-2.72E-05,SpatialBranchBack,Match,A,910,380,1010,480,spatial,yes,yes,2,8,65,1,0
213,4$,1.281188535,1,274.5001696,0.000169562,0.499974283,-2.57E-05,SpatialBranchStart,NonMatch,B,805,456,905,556,spatial,yes,yes,2,8,65,1,1
214,1!,1.259339848,1,277.5999872,-1.28E-05,0.499981041,-1.90E-05,SpatialBranchStart,Match,T,910,380,1010,480,spatial,yes,yes,2,8,65,1,0
215,1!,1.275510545,1,281.0997953,-0.000204669,0.499971147,-2.89E-05,ReturnSpatialBranchBack,Match,E,975,579,1075,679,spatial,yes,yes,2,8,65,1,0
216,4$,0.934663102,1,284.9995857,-0.000414331,0.499969637,-3.04E-05,spatialBaseline2,NonMatch,L,910,380,1010,480,spatial,yes,yes,2,8,65,1,1
217,4$,0.876831671,1,288.0994055,-0.000594485,0.499973443,-2.66E-05,spatialBaseline2,NonMatch,T,845,579,945,679,spatial,yes,yes,2,8,65,1,1
218,1!,0.851164857,1,295.4990057,-0.000994267,0.499974333,-2.57E-05,spatialInit,Match,B,910,380,1010,480,spatial,yes,no,2,9,74,1,0
219,4$,0.8523121,1,298.5988299,-0.001170145,0.499972773,-2.72E-05,spatialBaseline1,NonMatch,E,1015,456,1115,556,spatial,yes,no,2,9,74,1,1
220,1!,1.271432622,1,301.6986675,-0.001332504,0.499955532,-4.45E-05,spatialBaseline1,Match,A,845,579,945,679,spatial,yes,no,2,9,74,1,0
221,4$,0.959623672,1,305.1984615,-0.001538474,0.499967691,-3.23E-05,SpatialDelayTaskCue,NonMatch,B,975,579,1075,679,spatial,yes,no,2,9,74,1,1
222,4$,0.819746297,1,308.6982762,-0.001723831,0.499969252,-3.07E-05,SpatialDelayBack,NonMatch,L,1015,456,1115,556,spatial,yes,no,2,9,74,1,1
223,4$,1.134961659,1,312.1980707,-0.001929296,0.49997938,-2.06E-05,SpatialDelayBack,NonMatch,B,910,380,1010,480,spatial,yes,no,2,9,74,1,1
224,4$,1.016084577,1,315.2979,-0.002100042,0.499968496,-3.15E-05,SpatialDelayBack,NonMatch,A,845,579,945,679,spatial,yes,no,2,9,74,1,1
225,4$,1.361224339,1,318.3977246,-0.002275401,0.499987128,-1.29E-05,ReturnSpatialDelayBack,NonMatch,E,975,579,1075,679,spatial,yes,no,2,9,74,1,1
226,4$,1.155073431,0,321.4975659,-0.002434073,0.499959843,-4.02E-05,spatialBaseline2,Match,T,805,456,905,556,spatial,yes,no,2,9,74,1,1
227,1!,0.832520545,1,324.9973647,-0.002635261,0.500087953,8.80E-05,spatialBaseline2,Match,L,1015,456,1115,556,spatial,yes,no,2,9,74,1,0
228,4$,1.068812145,1,331.197021,-0.002979035,0.499966216,-3.38E-05,verbalInit,NonMatch,E,1015,456,1115,556,verbal,no,no,2,10,84,1,1
229,4$,1.661008939,1,335.0968005,-0.003199546,0.499973158,-2.68E-05,verbalBaseline1,NonMatch,A,805,456,905,556,verbal,no,no,2,10,84,1,1
230,4$,0.985126689,0,338.9965918,-0.003408168,0.499960849,-3.92E-05,VerbalControlTaskCue,Match,B,845,579,945,679,verbal,no,no,2,10,84,1,1
231,1!,0.585465424,1,342.8963696,-0.003630439,0.499975254,-2.47E-05,VerbalControlBack,Match,L,1015,456,1115,556,verbal,no,no,2,10,84,1,0
232,4$,0.814573454,1,345.996201,-0.003799005,0.500084027,8.40E-05,VerbalControlBack,NonMatch,B,975,579,1075,679,verbal,no,no,2,10,84,1,1
233,4$,0.741727677,1,349.4960119,-0.003988054,0.499969922,-3.01E-05,VerbalControlBack,NonMatch,T,805,456,905,556,verbal,no,no,2,10,84,1,1
234,4$,1.292899696,1,353.3957957,-0.004204288,0.499970777,-2.92E-05,ReturnVerbalControlBack,NonMatch,E,975,579,1075,679,verbal,no,no,2,10,84,1,1
235,1!,0.884971851,1,357.2955678,-0.004432162,0.499984847,-1.52E-05,verbalBaseline2,Match,T,805,456,905,556,verbal,no,no,2,10,84,1,0
236,1!,0.82117812,1,360.3954059,-0.00459407,0.499957948,-4.21E-05,verbalBaseline2,Match,A,1015,456,1115,556,verbal,no,no,2,10,84,1,0
237,1!,0.690600877,1,368.1949645,-0.005035528,0.500094341,9.43E-05,spatialInit,Match,L,910,380,1010,480,spatial,no,yes,2,11,93,1,0
238,4$,0.808743761,1,371.2947887,-0.005211341,0.499973628,-2.64E-05,spatialBaseline1,NonMatch,B,845,579,945,679,spatial,no,yes,2,11,93,1,1
239,4$,1.310825369,1,375.1945854,-0.005414596,0.499971062,-2.89E-05,SpatialSwitchTaskCue,NonMatch,E,805,456,905,556,spatial,no,yes,2,11,93,1,1
240,4$,0.739003645,1,378.6943885,-0.005611457,0.499970107,-2.99E-05,SpatialSwitchStart,NonMatch,B,1015,456,1115,556,spatial,no,yes,2,11,93,1,1
241,4$,0.916158725,1,382.5941626,-0.005837385,0.499982516,-1.75E-05,SpatialSwitchStart,NonMatch,A,805,456,905,556,spatial,no,yes,2,11,93,1,1
242,4$,0.801365183,1,386.0939734,-0.006026599,0.499972203,-2.78E-05,SpatialSwitchBack,NonMatch,E,845,579,945,679,spatial,no,yes,2,11,93,1,1
243,1!,0.492537791,1,389.9937604,-0.006239563,0.500090399,9.04E-05,SpatialSwitchBack,Match,B,910,380,1010,480,spatial,no,yes,2,11,93,1,0
244,1!,0.577628055,1,393.0935782,-0.006421833,0.499988538,-1.15E-05,ReturnSpatialSwitchBack,Match,A,975,579,1075,679,spatial,no,yes,2,11,93,1,0
245,4$,0.997834929,1,396.5933859,-0.006614133,0.499974198,-2.58E-05,spatialBaseline2,NonMatch,E,910,380,1010,480,spatial,no,yes,2,11,93,1,1
246,1!,0.753142148,1,403.593006,-0.006994037,0.499971733,-2.83E-05,verbalInit,Match,T,805,456,905,556,verbal,yes,yes,2,12,102,1,0
247,4$,0.746330194,1,407.4927788,-0.007221235,0.516636353,0.016636353,verbalBaseline1,NonMatch,B,910,380,1010,480,verbal,yes,yes,2,12,102,1,1
248,1!,1.24384774,1,411.4092355,0.009235519,0.499971347,-2.87E-05,verbalBaseline1,Match,L,805,456,905,556,verbal,yes,yes,2,12,102,1,0
249,NA,0,0,415.3090128,0.009012777,0.499984042,-1.60E-05,VerbalBranchTaskCue,NonMatch,B,975,579,1075,679,verbal,yes,yes,2,12,102,1,NA
250,4$,1.070163234,0,418.4088421,0.008842131,0.499974198,-2.58E-05,VerbalBranchBack,Match,L,1015,456,1115,556,verbal,yes,yes,2,12,102,1,1
251,1!,0.796273529,1,421.5086773,0.008677322,0.499975624,-2.44E-05,VerbalBranchStart,Match,T,910,380,1010,480,verbal,yes,yes,2,12,102,1,0
252,1!,0.744448923,1,424.6085051,0.008505099,0.499972773,-2.72E-05,VerbalBranchBack,Match,A,1015,456,1115,556,verbal,yes,yes,2,12,102,1,0
253,1!,1.084623566,1,428.5082839,0.008283883,0.499967926,-3.21E-05,ReturnVerbalBranchBack,Match,B,975,579,1075,679,verbal,yes,yes,2,12,102,1,0
254,1!,1.129768794,1,431.6081112,0.008111241,0.499985367,-1.46E-05,verbalBaseline2,Match,L,845,579,945,679,verbal,yes,yes,2,12,102,1,0
255,4$,1.199071331,1,438.2077498,0.007749805,0.499967456,-3.25E-05,spatialInit,NonMatch,E,805,456,905,556,spatial,no,no,2,13,111,1,1
256,4$,1.039251868,1,442.1075268,0.007526828,0.499980956,-1.90E-05,spatialBaseline1,NonMatch,T,845,579,945,679,spatial,no,no,2,13,111,1,1
257,1!,0.626352061,1,445.6073386,0.00733857,0.499976764,-2.32E-05,spatialBaseline1,Match,E,910,380,1010,480,spatial,no,no,2,13,111,1,0
258,4$,0.939532713,1,448.7071825,0.007182548,0.499952211,-4.78E-05,SpatialControlTaskCue,NonMatch,A,1015,456,1115,556,spatial,no,no,2,13,111,1,1
259,4$,0.769717387,1,452.2069745,0.006974533,0.499973343,-2.67E-05,SpatialControlBack,NonMatch,E,805,456,905,556,spatial,no,no,2,13,111,1,1
260,1!,0.58586636,1,455.7067873,0.006787264,0.499969537,-3.05E-05,SpatialControlBack,Match,B,1015,456,1115,556,spatial,no,no,2,13,111,1,0
261,1!,0.736054284,1,459.2065884,0.006588407,0.499970492,-2.95E-05,SpatialControlBack,Match,A,845,579,945,679,spatial,no,no,2,13,111,1,0
262,1!,0.40818314,1,462.7063929,0.006392921,0.49996303,-3.70E-05,ReturnSpatialControlBack,Match,T,910,380,1010,480,spatial,no,no,2,13,111,1,0
263,1!,0.45031677,1,465.8062118,0.006211811,0.499986223,-1.38E-05,spatialBaseline2,Match,A,975,579,1075,679,spatial,no,no,2,13,111,1,0
264,1!,0.600454566,1,468.9060504,0.006050422,0.49996459,-3.54E-05,spatialBaseline2,Match,T,805,456,905,556,spatial,no,no,2,13,111,1,0
265,1!,0.77981513,1,476.3056422,0.005642223,0.499977064,-2.29E-05,verbalInit,Match,T,975,579,1075,679,verbal,no,yes,2,14,121,1,0
266,4$,0.74798373,1,479.4054697,0.005469731,0.499970727,-2.93E-05,verbalBaseline1,NonMatch,L,845,579,945,679,verbal,no,yes,2,14,121,1,1
267,1!,1.175119109,1,483.305249,0.005249035,0.499974719,-2.53E-05,VerbalSwitchTaskCue,Match,E,975,579,1075,679,verbal,no,yes,2,14,121,1,0
268,1!,1.113298657,1,486.8050535,0.005053499,0.499969017,-3.10E-05,VerbalSwitchBack,Match,T,845,579,945,679,verbal,no,yes,2,14,121,1,0
269,1!,0.992439373,1,490.3048608,0.004860813,0.49996531,-3.47E-05,VerbalSwitchBack,Match,A,805,456,905,556,verbal,no,yes,2,14,121,1,0
270,4$,1.491654585,1,494.2046362,0.004636176,0.499983052,-1.69E-05,ReturnVerbalSwitchStart,NonMatch,E,845,579,945,679,verbal,no,yes,2,14,121,1,1
271,4$,1.297788493,1,498.1044317,0.004431696,0.499973913,-2.61E-05,verbalBaseline2,NonMatch,B,1015,456,1115,556,verbal,no,yes,2,14,121,1,1
272,1!,1.343154639,0,505.1040507,0.004050652,0.49996447,-3.55E-05,spatialInit,NonMatch,L,975,579,1075,679,spatial,yes,yes,2,15,128,1,0
273,4$,1.224299611,0,508.2038618,0.003861844,0.499976194,-2.38E-05,spatialBaseline1,Match,T,805,456,905,556,spatial,yes,yes,2,15,128,1,1
274,1!,0.629457857,0,511.70367,0.003670014,0.499967926,-3.21E-05,spatialBaseline1,NonMatch,A,975,579,1075,679,spatial,yes,yes,2,15,128,1,0
275,1!,0.728542714,1,514.8035144,0.003514378,0.499959573,-4.04E-05,SpatialBranchTaskCue,Match,B,805,456,905,556,spatial,yes,yes,2,15,128,1,0
276,1!,0.939761028,1,518.3033145,0.00331453,0.4999637,-3.63E-05,SpatialBranchStart,Match,T,910,380,1010,480,spatial,yes,yes,2,15,128,1,0
277,4$,1.243950611,1,522.2030879,0.003087897,0.499971247,-2.88E-05,SpatialBranchBack,NonMatch,E,805,456,905,556,spatial,yes,yes,2,15,128,1,1
278,4$,1.337096496,0,526.1028841,0.002884072,0.499966451,-3.35E-05,ReturnSpatialBranchBack,Match,L,1015,456,1115,556,spatial,yes,yes,2,15,128,1,1
279,4$,1.569257144,1,530.0026595,0.002659519,0.499969117,-3.09E-05,spatialBaseline2,NonMatch,T,805,456,905,556,spatial,yes,yes,2,15,128,1,1
280,4$,2.217652635,1,537.8022354,0.002235383,0.499967256,-3.27E-05,verbalInit,NonMatch,E,845,579,945,679,verbal,no,no,2,16,136,1,1
281,4$,1.054787397,1,540.9020598,0.00205984,0.499962124,-3.79E-05,verbalBaseline1,NonMatch,A,1015,456,1115,556,verbal,no,no,2,16,136,1,1
282,1!,1.021952324,0,544.4018605,0.001860498,0.49997844,-2.16E-05,verbalBaseline1,NonMatch,T,805,456,905,556,verbal,no,no,2,16,136,1,0
283,4$,0.692109747,1,547.901665,0.001664976,0.499971347,-2.87E-05,VerbalControlTaskCue,NonMatch,B,975,579,1075,679,verbal,no,no,2,16,136,1,1
284,4$,1.062213031,0,551.0014966,0.001496596,0.499965846,-3.42E-05,VerbalControlBack,Match,L,910,380,1010,480,verbal,no,no,2,16,136,1,1
285,4$,0.768447181,1,554.9012788,0.001278801,0.49999216,-7.84E-06,VerbalControlBack,NonMatch,B,975,579,1075,679,verbal,no,no,2,16,136,1,1
286,4$,1.34459354,0,558.4010831,0.00108313,0.499968782,-3.12E-05,VerbalControlBack,Match,L,1015,456,1115,556,verbal,no,no,2,16,136,1,1
287,4$,1.309711583,1,561.500912,0.000912048,0.499974769,-2.52E-05,ReturnVerbalControlBack,NonMatch,B,910,380,1010,480,verbal,no,no,2,16,136,1,1
288,1!,1.046818897,1,565.4007054,0.000705422,0.499968782,-3.12E-05,verbalBaseline2,Match,L,1015,456,1115,556,verbal,no,no,2,16,136,1,0
289,1!,0.659793692,1,12.00900457,0.009004574,0.49996422,-3.58E-05,spatialInit,Match,L,910,380,1010,480,spatial,yes,no,3,1,1,1,0
290,1!,0.52184797,1,15.10882385,0.008823849,0.499970742,-2.93E-05,spatialBaseline1,Match,T,975,579,1075,679,spatial,yes,no,3,1,1,1,0
291,1!,0.744154835,1,18.6086458,0.008645804,0.499961939,-3.81E-05,SpatialDelayTaskCue,Match,B,805,456,905,556,spatial,yes,no,3,1,1,1,0
292,4$,0.97928247,1,22.50840619,0.008406191,0.499972203,-2.78E-05,SpatialDelayBack,NonMatch,L,845,579,945,679,spatial,yes,no,3,1,1,1,1
293,4$,0.622420629,1,25.60822884,0.008228837,0.499983322,-1.67E-05,SpatialDelayBack,NonMatch,A,1015,456,1115,556,spatial,yes,no,3,1,1,1,1
294,1!,0.392624032,1,29.50801684,0.008016844,0.499976664,-2.33E-05,SpatialDelayBack,Match,L,845,579,945,679,spatial,yes,no,3,1,1,1,0
295,1!,0.678785925,1,33.40779501,0.007795008,0.499982231,-1.78E-05,ReturnSpatialDelayStart,Match,E,910,380,1010,480,spatial,yes,no,3,1,1,1,0
296,1!,0.654946368,1,36.90760447,0.007604469,0.499966786,-3.32E-05,spatialBaseline2,Match,A,975,579,1075,679,spatial,yes,no,3,1,1,1,0
297,4$,1.007119217,1,40.40741673,0.00741673,0.499961889,-3.81E-05,spatialBaseline2,NonMatch,B,845,579,945,679,spatial,yes,no,3,1,1,1,1
298,1!,0.739478587,1,47.40700703,0.007007026,0.499989074,-1.09E-05,verbalInit,Match,T,910,380,1010,480,verbal,no,no,3,2,10,1,0
299,4$,0.668700741,1,51.30679946,0.00679946,0.499969972,-3.00E-05,verbalBaseline1,NonMatch,B,845,579,945,679,verbal,no,no,3,2,10,1,1
300,4$,0.685861021,1,54.80659879,0.006598792,0.499969017,-3.10E-05,VerbalControlTaskCue,NonMatch,A,805,456,905,556,verbal,no,no,3,2,10,1,1
301,1!,0.522002964,1,57.90642905,0.006429051,0.499973913,-2.61E-05,VerbalControlBack,Match,B,1015,456,1115,556,verbal,no,no,3,2,10,1,0
302,1!,0.561088488,1,61.80620978,0.00620978,0.499976479,-2.35E-05,VerbalControlBack,Match,L,910,380,1010,480,verbal,no,no,3,2,10,1,0
303,1!,0.549306688,1,65.70598256,0.005982562,0.499984797,-1.52E-05,VerbalControlBack,Match,E,975,579,1075,679,verbal,no,no,3,2,10,1,0
304,1!,0.791424075,1,68.80580663,0.005806633,0.499979045,-2.10E-05,ReturnVerbalControlBack,Match,T,910,380,1010,480,verbal,no,no,3,2,10,1,0
305,1!,0.46352189,1,72.30562508,0.005625082,0.499971347,-2.87E-05,verbalBaseline2,Match,A,975,579,1075,679,verbal,no,no,3,2,10,1,0
306,1!,0.603902938,1,79.70520239,0.005202392,0.499972203,-2.78E-05,verbalInit,Match,T,845,579,945,679,verbal,no,yes,3,3,18,1,0
307,4$,0.733151108,1,83.60498426,0.004984262,0.499975054,-2.49E-05,verbalBaseline1,NonMatch,L,805,456,905,556,verbal,no,yes,3,3,18,1,1
308,1!,0.610357421,1,87.10479471,0.004794713,0.499972203,-2.78E-05,VerbalSwitchTaskCue,Match,E,975,579,1075,679,verbal,no,yes,3,3,18,1,0
309,4$,1.213518312,1,90.60459347,0.004593475,0.499975909,-2.41E-05,VerbalSwitchBack,NonMatch,A,845,579,945,679,verbal,no,yes,3,3,18,1,1
310,4$,1.250686202,1,94.10440322,0.004403221,0.499971733,-2.83E-05,VerbalSwitchBack,NonMatch,L,910,380,1010,480,verbal,no,yes,3,3,18,1,1
311,1!,0.728763467,1,98.00417892,0.004178918,0.499951556,-4.84E-05,ReturnVerbalSwitchBack,Match,E,1015,456,1115,556,verbal,no,yes,3,3,18,1,0
312,4$,1.389021842,1,101.5039892,0.003989184,0.499974349,-2.57E-05,verbalBaseline2,NonMatch,L,845,579,945,679,verbal,no,yes,3,3,18,1,1
313,1!,0.591194262,1,105.0037884,0.003788431,0.499972773,-2.72E-05,verbalBaseline2,Match,E,1015,456,1115,556,verbal,no,yes,3,3,18,1,0
314,4$,1.014505172,1,111.6034155,0.003415541,0.499975909,-2.41E-05,spatialInit,NonMatch,E,1015,456,1115,556,spatial,no,no,3,4,26,1,1
315,1!,0.570494093,1,114.7033654,0.003365442,0.499854791,-0.000145209,spatialBaseline1,Match,L,845,579,945,679,spatial,no,no,3,4,26,1,0
316,4$,0.787799446,1,117.8030744,0.003074383,0.499970207,-2.98E-05,spatialBaseline1,NonMatch,E,805,456,905,556,spatial,no,no,3,4,26,1,1
317,1!,0.591984945,1,121.7028537,0.002853687,0.499974769,-2.52E-05,SpatialControlTaskCue,Match,B,1015,456,1115,556,spatial,no,no,3,4,26,1,0
318,1!,0.586058247,1,125.2026651,0.002665128,0.499971883,-2.81E-05,SpatialControlBack,Match,T,845,579,945,679,spatial,no,no,3,4,26,1,0
319,4$,0.631226183,1,129.1024489,0.002448909,0.499965981,-3.40E-05,SpatialControlBack,NonMatch,E,805,456,905,556,spatial,no,no,3,4,26,1,1
320,1!,0.488285841,1,132.2022718,0.00227184,0.499978575,-2.14E-05,SpatialControlBack,Match,B,1015,456,1115,556,spatial,no,no,3,4,26,1,0
321,1!,0.401619108,1,135.7020844,0.002084372,0.499967876,-3.21E-05,SpatialControlBack,Match,A,845,579,945,679,spatial,no,no,3,4,26,1,0
322,1!,0.456695031,1,138.8019014,0.001901381,0.499973728,-2.63E-05,ReturnSpatialControlBack,Match,T,910,380,1010,480,spatial,no,no,3,4,26,1,0
323,1!,0.368886876,1,141.9017416,0.001741618,0.499957613,-4.24E-05,spatialBaseline2,Match,B,975,579,1075,679,spatial,no,no,3,4,26,1,0
324,4$,1.029111374,1,148.9013376,0.001337581,0.499980756,-1.92E-05,verbalInit,NonMatch,B,805,456,905,556,verbal,yes,yes,3,5,36,1,1
325,4$,0.818273669,0,152.001167,0.00116697,0.499968747,-3.13E-05,verbalBaseline1,Match,L,1015,456,1115,556,verbal,yes,yes,3,5,36,1,1
326,4$,1.387455551,1,155.5009713,0.000971349,0.499977049,-2.30E-05,VerbalBranchTaskCue,NonMatch,T,805,456,905,556,verbal,yes,yes,3,5,36,1,1
327,1!,0.931689692,1,159.0007758,0.000775778,0.499983942,-1.61E-05,VerbalBranchStart,Match,T,845,579,945,679,verbal,yes,yes,3,5,36,1,0
328,4$,1.327866342,1,162.9005645,0.000564475,0.499977955,-2.20E-05,VerbalBranchBack,NonMatch,E,1015,456,1115,556,verbal,yes,yes,3,5,36,1,1
329,4$,1.515949867,1,166.4003641,0.000364107,0.499972203,-2.78E-05,VerbalBranchBack,NonMatch,L,845,579,945,679,verbal,yes,yes,3,5,36,1,1
330,1!,0.765061566,1,169.5001902,0.000190224,0.499973058,-2.69E-05,VerbalBranchStart,Match,T,975,579,1075,679,verbal,yes,yes,3,5,36,1,0
331,1!,0.753288169,1,172.9999964,-3.60E-06,0.499975624,-2.44E-05,ReturnVerbalBranchStart,Match,T,910,380,1010,480,verbal,yes,yes,3,5,36,1,0
332,4$,0.860441126,1,176.8997831,-0.000216935,0.499962174,-3.78E-05,verbalBaseline2,NonMatch,E,975,579,1075,679,verbal,yes,yes,3,5,36,1,1
333,1!,0.796708491,1,183.8993913,-0.000608747,0.499970157,-2.98E-05,spatialInit,Match,E,910,380,1010,480,spatial,no,no,3,6,45,1,0
334,1!,0.471876515,1,187.3991949,-0.000805089,0.499967826,-3.22E-05,spatialBaseline1,Match,A,975,579,1075,679,spatial,no,no,3,6,45,1,0
335,1!,0.477102687,1,191.2989813,-0.001018658,0.499966836,-3.32E-05,SpatialControlTaskCue,Match,B,805,456,905,556,spatial,no,no,3,6,45,1,0
336,4$,0.741293434,1,195.1987588,-0.001241164,0.499969352,-3.06E-05,SpatialControlBack,NonMatch,L,845,579,945,679,spatial,no,no,3,6,45,1,1
337,1!,0.515447386,1,198.2985843,-0.001415667,0.499971062,-2.89E-05,SpatialControlBack,Match,A,910,380,1010,480,spatial,no,no,3,6,45,1,0
338,1!,0.486653728,1,201.3984187,-0.001581317,0.499970442,-2.96E-05,SpatialControlBack,Match,E,975,579,1075,679,spatial,no,no,3,6,45,1,0
339,1!,0.411677662,1,204.4982515,-0.001748507,0.49996556,-3.44E-05,ReturnSpatialControlBack,Match,A,805,456,905,556,spatial,no,no,3,6,45,1,0
340,4$,0.911877125,1,207.9980592,-0.001940842,0.499960984,-3.90E-05,spatialBaseline2,NonMatch,T,845,579,945,679,spatial,no,no,3,6,45,1,1
341,1!,0.920194603,1,214.997666,-0.00233396,0.499972303,-2.77E-05,verbalInit,Match,T,845,579,945,679,verbal,yes,no,3,7,53,1,0
342,4$,0.633369617,1,218.0974915,-0.002508463,0.499967926,-3.21E-05,verbalBaseline1,NonMatch,L,1015,456,1115,556,verbal,yes,no,3,7,53,1,1
343,1!,0.440465803,1,221.5972943,-0.00270571,0.499965445,-3.46E-05,verbalBaseline1,Match,E,805,456,905,556,verbal,yes,no,3,7,53,1,0
344,1!,1.27969362,1,225.4970809,-0.002919078,0.499967641,-3.24E-05,VerbalDelayTaskCue,Match,T,1015,456,1115,556,verbal,yes,no,3,7,53,1,0
345,4$,0.796849666,1,228.9968815,-0.003118506,0.499974434,-2.56E-05,VerbalDelayBack,NonMatch,L,910,380,1010,480,verbal,yes,no,3,7,53,1,1
346,4$,1.403981903,1,232.0967116,-0.003288397,0.499976244,-2.38E-05,VerbalDelayBack,NonMatch,B,845,579,945,679,verbal,yes,no,3,7,53,1,1
347,1!,1.369130117,0,235.1965397,-0.003460284,0.499977905,-2.21E-05,VerbalDelayBack,NonMatch,A,910,380,1010,480,verbal,yes,no,3,7,53,1,0
348,1!,1.313277666,1,238.6963456,-0.003654395,0.499972203,-2.78E-05,ReturnVerbalDelayStart,Match,T,975,579,1075,679,verbal,yes,no,3,7,53,1,0
349,4$,1.180455009,0,241.796177,-0.00382296,0.499969602,-3.04E-05,verbalBaseline2,Match,A,1015,456,1115,556,verbal,yes,no,3,7,53,1,1
350,1!,0.927612289,1,245.6959508,-0.004049158,0.499973628,-2.64E-05,verbalBaseline2,Match,B,975,579,1075,679,verbal,yes,no,3,7,53,1,0
351,1!,0.652942549,1,252.6955713,-0.004428677,0.499967976,-3.20E-05,verbalInit,Match,T,975,579,1075,679,verbal,yes,yes,3,8,63,1,0
352,1!,0.481070761,1,255.7953994,-0.004600564,0.499962659,-3.73E-05,verbalBaseline1,Match,A,805,456,905,556,verbal,yes,yes,3,8,63,1,0
353,1!,0.702227532,1,258.8952236,-0.004776442,0.499971783,-2.82E-05,VerbalBranchTaskCue,Match,B,1015,456,1115,556,verbal,yes,yes,3,8,63,1,0
354,4$,0.922385933,1,262.7950105,-0.00498949,0.49996313,-3.69E-05,VerbalBranchBack,NonMatch,T,805,456,905,556,verbal,yes,yes,3,8,63,1,1
355,4$,1.56655847,1,265.894828,-0.005172011,0.499975054,-2.49E-05,VerbalBranchStart,NonMatch,L,975,579,1075,679,verbal,yes,yes,3,8,63,1,1
356,4$,1.498686531,1,268.9946668,-0.005333214,0.499960464,-3.95E-05,VerbalBranchBack,NonMatch,T,845,579,945,679,verbal,yes,yes,3,8,63,1,1
357,4$,1.393846407,1,272.4944596,-0.005540389,0.499980186,-1.98E-05,ReturnVerbalBranchBack,NonMatch,E,805,456,905,556,verbal,yes,yes,3,8,63,1,1
358,1!,0.918105959,1,276.3942561,-0.005743929,0.499961419,-3.86E-05,verbalBaseline2,Match,T,1015,456,1115,556,verbal,yes,yes,3,8,63,1,0
359,1!,0.59537289,1,283.793845,-0.00615498,0.499962559,-3.74E-05,spatialInit,Match,T,910,380,1010,480,spatial,no,yes,3,9,71,1,0
360,1!,0.39655868,1,287.6936225,-0.006377502,0.499970422,-2.96E-05,spatialBaseline1,Match,E,975,579,1075,679,spatial,no,yes,3,9,71,1,0
361,4$,1.1166941,1,291.1934273,-0.006572673,0.499971768,-2.82E-05,SpatialSwitchTaskCue,NonMatch,T,1015,456,1115,556,spatial,no,yes,3,9,71,1,1
362,4$,0.76085976,1,294.2932565,-0.006743469,0.499968681,-3.13E-05,SpatialSwitchStart,NonMatch,A,975,579,1075,679,spatial,no,yes,3,9,71,1,1
363,1!,0.688098488,1,297.7930617,-0.006938335,0.499969537,-3.05E-05,SpatialSwitchBack,Match,E,805,456,905,556,spatial,no,yes,3,9,71,1,0
364,4$,0.886267761,1,301.2928655,-0.007134472,0.516630751,0.016630751,ReturnSpatialSwitchBack,NonMatch,A,975,579,1075,679,spatial,no,yes,3,9,71,1,1
365,1!,0.574630662,1,304.4093621,0.009362104,0.499980606,-1.94E-05,spatialBaseline2,Match,E,805,456,905,556,spatial,no,yes,3,9,71,1,0
366,4$,0.614807769,1,307.509186,0.009186005,0.49997861,-2.14E-05,spatialBaseline2,NonMatch,B,845,579,945,679,spatial,no,yes,3,9,71,1,1
367,4$,0.752131083,1,314.5088006,0.008800585,0.499969232,-3.08E-05,spatialInit,NonMatch,B,1015,456,1115,556,spatial,yes,yes,3,10,79,1,1
368,1!,0.710296843,1,318.0086018,0.008601793,0.49997965,-2.03E-05,spatialBaseline1,Match,L,845,579,945,679,spatial,yes,yes,3,10,79,1,0
369,1!,0.438429233,1,321.1084354,0.008435392,0.499960093,-3.99E-05,spatialBaseline1,Match,B,910,380,1010,480,spatial,yes,yes,3,10,79,1,0
370,4$,0.939614707,1,324.6082329,0.008232944,0.499985687,-1.43E-05,SpatialBranchTaskCue,NonMatch,T,845,579,945,679,spatial,yes,yes,3,10,79,1,1
371,4$,1.322696656,1,327.7080702,0.008070215,0.499962759,-3.72E-05,SpatialBranchBack,NonMatch,B,805,456,905,556,spatial,yes,yes,3,10,79,1,1
372,4$,0.817878035,1,330.807896,0.007896047,0.499970492,-2.95E-05,SpatialBranchBack,NonMatch,A,845,579,945,679,spatial,yes,yes,3,10,79,1,1
373,1!,1.140029834,1,334.3077035,0.007703462,0.499969937,-3.01E-05,SpatialBranchBack,Match,T,910,380,1010,480,spatial,yes,yes,3,10,79,1,0
374,1!,0.628206973,1,338.2074824,0.007482381,0.499966566,-3.34E-05,SpatialBranchBack,Match,B,975,579,1075,679,spatial,yes,yes,3,10,79,1,0
375,1!,0.965376409,1,341.7072827,0.007282683,0.499983257,-1.67E-05,ReturnSpatialBranchStart,Match,A,910,380,1010,480,spatial,yes,yes,3,10,79,1,0
376,4$,1.105515522,1,345.607075,0.007074987,0.499980386,-1.96E-05,spatialBaseline2,NonMatch,T,805,456,905,556,spatial,yes,yes,3,10,79,1,1
377,4$,1.360980293,1,353.4066383,0.006638257,0.499977149,-2.29E-05,verbalInit,NonMatch,B,910,380,1010,480,verbal,no,yes,3,11,89,1,1
378,1!,1.407154163,1,357.3064328,0.006432771,0.499971347,-2.87E-05,verbalBaseline1,Match,L,805,456,905,556,verbal,no,yes,3,11,89,1,0
379,4$,0.980261689,1,360.4062495,0.00624948,0.499992915,-7.09E-06,VerbalSwitchTaskCue,NonMatch,T,1015,456,1115,556,verbal,no,yes,3,11,89,1,1
380,4$,1.134382235,1,364.3060516,0.006051642,0.499954041,-4.60E-05,VerbalSwitchBack,NonMatch,B,975,579,1075,679,verbal,no,yes,3,11,89,1,1
381,4$,1.36253674,1,367.4058707,0.005870682,0.499974198,-2.58E-05,VerbalSwitchBack,NonMatch,A,1015,456,1115,556,verbal,no,yes,3,11,89,1,1
382,4$,1.18572113,1,371.3056582,0.005658154,0.499962794,-3.72E-05,VerbalSwitchStart,NonMatch,B,805,456,905,556,verbal,no,yes,3,11,89,1,1
383,1!,0.877906698,0,375.2054438,0.005443765,0.499957208,-4.28E-05,ReturnVerbalSwitchBack,NonMatch,T,845,579,945,679,verbal,no,yes,3,11,89,1,0
384,4$,1.731049635,1,378.7052415,0.005241451,0.499976714,-2.33E-05,verbalBaseline2,NonMatch,E,805,456,905,556,verbal,no,yes,3,11,89,1,1
385,4$,1.238158801,1,381.8050709,0.00507094,0.499970642,-2.94E-05,verbalBaseline2,NonMatch,L,910,380,1010,480,verbal,no,yes,3,11,89,1,1
386,1!,0.771569028,1,389.6046426,0.004642612,0.499972923,-2.71E-05,spatialInit,Match,A,910,380,1010,480,spatial,yes,no,3,12,98,1,0
387,4$,0.753712918,1,392.7044736,0.004473576,0.499962559,-3.74E-05,spatialBaseline1,NonMatch,E,1015,456,1115,556,spatial,yes,no,3,12,98,1,1
388,4$,1.317894293,1,396.2042678,0.004267827,0.499977149,-2.29E-05,SpatialDelayTaskCue,NonMatch,B,805,456,905,556,spatial,yes,no,3,12,98,1,1
389,4$,0.903020973,1,400.1040546,0.004054643,0.499971918,-2.81E-05,SpatialDelayBack,NonMatch,L,845,579,945,679,spatial,yes,no,3,12,98,1,1
390,4$,0.836202664,1,403.203879,0.003879,0.499982466,-1.75E-05,SpatialDelayBack,NonMatch,A,975,579,1075,679,spatial,yes,no,3,12,98,1,1
391,1!,0.615357272,1,406.7036929,0.003692922,0.499972873,-2.71E-05,SpatialDelayBack,Match,L,805,456,905,556,spatial,yes,no,3,12,98,1,0
392,4$,0.738570173,1,410.6034671,0.003467079,0.499976979,-2.30E-05,SpatialDelayBack,NonMatch,A,975,579,1075,679,spatial,yes,no,3,12,98,1,1
393,4$,1.114702005,1,414.5032586,0.003258622,0.499981326,-1.87E-05,ReturnSpatialDelayBack,NonMatch,B,1015,456,1115,556,spatial,yes,no,3,12,98,1,1
394,4$,0.847833746,1,418.0030591,0.003059145,0.499985117,-1.49E-05,spatialBaseline2,NonMatch,E,910,380,1010,480,spatial,yes,no,3,12,98,1,1
395,1!,0.83909256,1,421.1028918,0.002891835,0.499971282,-2.87E-05,spatialBaseline2,Match,L,975,579,1075,679,spatial,yes,no,3,12,98,1,0
396,1!,0.754374016,1,427.3025559,0.002555929,0.499960414,-3.96E-05,verbalInit,Match,T,805,456,905,556,verbal,no,no,3,13,108,1,0
397,1!,0.806520229,1,430.4023764,0.002376379,0.499970877,-2.91E-05,verbalBaseline1,Match,A,845,579,945,679,verbal,no,no,3,13,108,1,0
398,4$,0.716625006,1,433.5022205,0.002220458,0.499958098,-4.19E-05,verbalBaseline1,NonMatch,L,910,380,1010,480,verbal,no,no,3,13,108,1,1
399,4$,0.813769506,1,437.401996,0.00199602,0.499971112,-2.89E-05,VerbalControlTaskCue,NonMatch,T,805,456,905,556,verbal,no,no,3,13,108,1,1
400,1!,0.659024827,1,441.301773,0.001773043,0.499970107,-2.99E-05,VerbalControlBack,Match,A,845,579,945,679,verbal,no,no,3,13,108,1,0
401,1!,0.787100195,1,444.8015764,0.001576367,0.499970877,-2.91E-05,VerbalControlBack,Match,B,975,579,1075,679,verbal,no,no,3,13,108,1,0
402,1!,0.615366966,1,448.7013582,0.001358237,0.499977049,-2.30E-05,VerbalControlBack,Match,L,845,579,945,679,verbal,no,no,3,13,108,1,0
403,4$,1.014378973,1,451.8011877,0.001187725,0.49996531,-3.47E-05,VerbalControlBack,NonMatch,T,1015,456,1115,556,verbal,no,no,3,13,108,1,1
404,1!,0.608588794,0,454.9010303,0.001030343,0.499959173,-4.08E-05,ReturnVerbalControlBack,NonMatch,E,845,579,945,679,verbal,no,no,3,13,108,1,0
405,4$,0.916789416,1,458.8007995,0.000799469,0.499974484,-2.55E-05,verbalBaseline2,NonMatch,A,1015,456,1115,556,verbal,no,no,3,13,108,1,1
406,4$,0.845031496,1,465.4004341,0.000434056,0.499984847,-1.52E-05,spatialInit,NonMatch,B,805,456,905,556,spatial,no,yes,3,14,118,1,1
407,4$,1.376242981,1,468.9002475,0.000247458,0.499975004,-2.50E-05,spatialBaseline1,NonMatch,L,975,579,1075,679,spatial,no,yes,3,14,118,1,1
408,1!,1.122463352,1,472.8000287,2.87E-05,0.499970642,-2.94E-05,spatialBaseline1,Match,E,805,456,905,556,spatial,no,yes,3,14,118,1,0
409,1!,0.683542772,1,475.8999826,-1.74E-05,0.499854476,-0.000145524,SpatialSwitchTaskCue,Match,L,1015,456,1115,556,spatial,no,yes,3,14,118,1,0
410,4$,1.212803181,0,479.7996337,-0.000366256,0.499981326,-1.87E-05,SpatialSwitchStart,Match,T,910,380,1010,480,spatial,no,yes,3,14,118,1,1
411,4$,0.997953296,1,483.2994472,-0.000552754,0.499979615,-2.04E-05,SpatialSwitchStart,NonMatch,E,805,456,905,556,spatial,no,yes,3,14,118,1,1
412,1!,0.621024394,1,487.1992271,-0.00077293,0.499982701,-1.73E-05,ReturnSpatialSwitchBack,Match,A,1015,456,1115,556,spatial,no,yes,3,14,118,1,0
413,1!,0.735291741,1,490.6990379,-0.000962144,0.499964505,-3.55E-05,spatialBaseline2,Match,E,845,579,945,679,spatial,no,yes,3,14,118,1,0
414,4$,1.060596193,1,497.2986731,-0.001326916,0.499972488,-2.75E-05,verbalInit,NonMatch,B,1015,456,1115,556,verbal,yes,no,3,15,126,1,1
415,4$,0.965743968,1,500.3984926,-0.001507391,0.499976864,-2.31E-05,verbalBaseline1,NonMatch,E,975,579,1075,679,verbal,yes,no,3,15,126,1,1
416,4$,1.207860299,1,504.2982912,-0.001708835,0.499960179,-3.98E-05,VerbalDelayTaskCue,NonMatch,A,1015,456,1115,556,verbal,yes,no,3,15,126,1,1
417,4$,1.458079327,0,508.198077,-0.001922974,0.499969822,-3.02E-05,VerbalDelayBack,Match,B,975,579,1075,679,verbal,yes,no,3,15,126,1,1
418,1!,1.282223029,1,511.2979022,-0.002097762,0.499963885,-3.61E-05,VerbalDelayBack,Match,L,910,380,1010,480,verbal,yes,no,3,15,126,1,0
419,1!,0.745327502,1,514.3977264,-0.00227364,0.499980956,-1.90E-05,VerbalDelayBack,Match,E,805,456,905,556,verbal,yes,no,3,15,126,1,0
420,1!,1.133493393,1,517.8975392,-0.002460808,0.499953371,-4.66E-05,ReturnVerbalDelayBack,Match,T,910,380,1010,480,verbal,yes,no,3,15,126,1,0
421,4$,1.407619026,1,520.9973718,-0.002628234,0.499958433,-4.16E-05,verbalBaseline2,NonMatch,L,845,579,945,679,verbal,yes,no,3,15,126,1,1
422,4$,1.445924701,1,527.9969707,-0.00302927,0.499968396,-3.16E-05,spatialInit,NonMatch,B,845,579,945,679,spatial,yes,yes,3,16,134,1,1
423,4$,1.232135674,1,531.8967473,-0.003252717,0.499980656,-1.93E-05,spatialBaseline1,NonMatch,E,805,456,905,556,spatial,yes,yes,3,16,134,1,1
424,4$,1.362269566,1,535.3965605,-0.003439515,0.499972303,-2.77E-05,spatialBaseline1,NonMatch,B,910,380,1010,480,spatial,yes,yes,3,16,134,1,1
425,1!,0.579507635,1,538.8963616,-0.003638372,0.499982081,-1.79E-05,SpatialBranchTaskCue,Match,T,975,579,1075,679,spatial,yes,yes,3,16,134,1,0
426,4$,0.636546773,1,541.9961915,-0.003808548,0.49999159,-8.41E-06,SpatialBranchStart,NonMatch,L,845,579,945,679,spatial,yes,yes,3,16,134,1,1
427,4$,1.574737809,1,545.8959777,-0.004022302,0.499983942,-1.61E-05,SpatialBranchBack,NonMatch,T,805,456,905,556,spatial,yes,yes,3,16,134,1,1
428,1!,0.778905646,1,549.3957949,-0.004205094,0.499961839,-3.82E-05,SpatialBranchBack,Match,B,1015,456,1115,556,spatial,yes,yes,3,16,134,1,0
429,4$,0.628081143,1,552.8956014,-0.004398584,0.499960749,-3.93E-05,SpatialBranchStart,NonMatch,L,975,579,1075,679,spatial,yes,yes,3,16,134,1,1
430,4$,0.995245464,1,556.7953755,-0.004624462,0.499967826,-3.22E-05,ReturnSpatialBranchBack,NonMatch,T,1015,456,1115,556,spatial,yes,yes,3,16,134,1,1
431,4$,1.16843294,1,560.6951634,-0.004836555,0.499964305,-3.57E-05,spatialBaseline2,NonMatch,A,975,579,1075,679,spatial,yes,yes,3,16,134,1,1
432,4$,0.806601753,1,564.5949533,-0.005046702,0.499963985,-3.60E-05,spatialBaseline2,NonMatch,E,1015,456,1115,556,spatial,yes,yes,3,16,134,1,1
433,4$,0.837641195,1,11.99512503,-0.004874973,0.499977905,-2.21E-05,spatialInit,NonMatch,E,975,579,1075,679,spatial,no,no,4,1,1,1,1
434,1!,0.586773028,1,15.09494626,-0.005053737,0.499973628,-2.64E-05,spatialBaseline1,Match,T,805,456,905,556,spatial,no,no,4,1,1,1,0
435,1!,0.512957506,1,18.59476332,-0.005236679,0.499961319,-3.87E-05,SpatialControlTaskCue,Match,L,1015,456,1115,556,spatial,no,no,4,1,1,1,0
436,4$,0.726098065,1,21.69458721,-0.005412793,0.499959238,-4.08E-05,SpatialControlBack,NonMatch,T,910,380,1010,480,spatial,no,no,4,1,1,1,1
437,4$,0.632330897,1,25.1943969,-0.005603097,0.499967591,-3.24E-05,SpatialControlBack,NonMatch,E,845,579,945,679,spatial,no,no,4,1,1,1,1
438,1!,0.539499007,1,28.69419362,-0.005806381,0.499977234,-2.28E-05,ReturnSpatialControlBack,Match,A,910,380,1010,480,spatial,no,no,4,1,1,1,0
439,1!,0.369561674,1,32.59398513,-0.006014868,0.499972488,-2.75E-05,spatialBaseline2,Match,B,975,579,1075,679,spatial,no,no,4,1,1,1,0
440,1!,0.493772829,1,35.69381197,-0.00618803,0.499975724,-2.43E-05,spatialBaseline2,Match,E,805,456,905,556,spatial,no,no,4,1,1,1,0
441,4$,0.914099681,1,43.49337348,-0.006626521,0.499970207,-2.98E-05,verbalInit,NonMatch,B,845,579,945,679,verbal,no,yes,4,2,9,1,1
442,1!,0.726204693,1,46.59321015,-0.006789855,0.499969872,-3.01E-05,verbalBaseline1,Match,L,805,456,905,556,verbal,no,yes,4,2,9,1,0
443,1!,0.771394447,1,50.49298209,-0.007017914,0.49999263,-7.37E-06,VerbalSwitchTaskCue,Match,E,975,579,1075,679,verbal,no,yes,4,2,9,1,0
444,1!,0.629912192,1,54.00946402,0.00946402,0.483301495,-0.016698505,VerbalSwitchBack,Match,T,910,380,1010,480,verbal,no,yes,4,2,9,1,0
445,1!,0.803087743,1,57.50926032,0.009260316,0.499984177,-1.58E-05,VerbalSwitchStart,Match,T,1015,456,1115,556,verbal,no,yes,4,2,9,1,0
446,4$,0.887165882,1,60.60909517,0.009095172,0.499963885,-3.61E-05,VerbalSwitchBack,NonMatch,B,910,380,1010,480,verbal,no,yes,4,2,9,1,1
447,1!,0.74216175,1,64.5088778,0.008877797,0.499969537,-3.05E-05,VerbalSwitchStart,Match,T,845,579,945,679,verbal,no,yes,4,2,9,1,0
448,4$,0.930590296,1,68.40866894,0.00866894,0.499971818,-2.82E-05,ReturnVerbalSwitchStart,NonMatch,A,805,456,905,556,verbal,no,yes,4,2,9,1,1
449,4$,1.113725872,1,71.90847203,0.008472028,0.499970492,-2.95E-05,verbalBaseline2,NonMatch,E,910,380,1010,480,verbal,no,yes,4,2,9,1,1
450,1!,0.88505386,1,78.50810784,0.008107841,0.499964505,-3.55E-05,spatialInit,Match,B,910,380,1010,480,spatial,no,no,4,3,18,1,0
451,1!,0.807180221,1,81.60793619,0.00793619,0.499969302,-3.07E-05,spatialBaseline1,Match,L,975,579,1075,679,spatial,no,no,4,3,18,1,0
452,1!,0.427290604,1,84.70775708,0.007757075,0.499981476,-1.85E-05,spatialBaseline1,Match,T,805,456,905,556,spatial,no,no,4,3,18,1,0
453,4$,0.685498909,1,88.60755015,0.007550149,0.500081746,8.17E-05,SpatialControlTaskCue,NonMatch,B,975,579,1075,679,spatial,no,no,4,3,18,1,1
454,4$,0.960632492,1,91.70737405,0.007374051,0.499969637,-3.04E-05,SpatialControlBack,NonMatch,L,1015,456,1115,556,spatial,no,no,4,3,18,1,1
455,4$,0.596850749,1,95.60715953,0.007159527,0.499974298,-2.57E-05,SpatialControlBack,NonMatch,E,910,380,1010,480,spatial,no,no,4,3,18,1,1
456,1!,0.604005809,1,99.10696391,0.006963905,0.499975004,-2.50E-05,SpatialControlBack,Match,T,975,579,1075,679,spatial,no,no,4,3,18,1,0
457,4$,0.710084458,1,102.2067954,0.00679544,0.499968832,-3.12E-05,SpatialControlBack,NonMatch,E,845,579,945,679,spatial,no,no,4,3,18,1,1
458,1!,0.453299473,1,106.1065828,0.006582827,0.499964205,-3.58E-05,ReturnSpatialControlBack,Match,B,910,380,1010,480,spatial,no,no,4,3,18,1,0
459,1!,0.469550013,1,109.606373,0.00637302,0.499985753,-1.42E-05,spatialBaseline2,Match,T,975,579,1075,679,spatial,no,no,4,3,18,1,0
460,4$,0.617638059,1,113.5061653,0.006165269,0.499976949,-2.31E-05,spatialBaseline2,NonMatch,B,910,380,1010,480,spatial,no,no,4,3,18,1,1
461,1!,0.455883151,0,119.7058268,0.005826812,0.499974484,-2.55E-05,verbalInit,NonMatch,E,910,380,1010,480,verbal,yes,yes,4,4,29,1,0
462,4$,1.390166989,1,123.2056334,0.005633371,0.499973243,-2.68E-05,verbalBaseline1,NonMatch,L,975,579,1075,679,verbal,yes,yes,4,4,29,1,1
463,4$,1.120332213,1,126.7054379,0.005437935,0.499973628,-2.64E-05,VerbalBranchTaskCue,NonMatch,T,1015,456,1115,556,verbal,yes,yes,4,4,29,1,1
464,4$,0.959509967,1,130.6052125,0.005212478,0.499974484,-2.55E-05,VerbalBranchBack,NonMatch,L,910,380,1010,480,verbal,yes,yes,4,4,29,1,1
465,1!,1.169669084,1,134.1050324,0.005032352,0.499973108,-2.69E-05,VerbalBranchBack,Match,E,975,579,1075,679,verbal,yes,yes,4,4,29,1,0
466,4$,1.043757726,1,138.0048122,0.004812226,0.499970777,-2.92E-05,ReturnVerbalBranchBack,NonMatch,A,845,579,945,679,verbal,yes,yes,4,4,29,1,1
467,4$,1.183910123,1,141.5046268,0.004626768,0.499961839,-3.82E-05,verbalBaseline2,NonMatch,L,1015,456,1115,556,verbal,yes,yes,4,4,29,1,1
468,1!,1.250100357,1,144.6044447,0.004444668,0.499982416,-1.76E-05,verbalBaseline2,Match,E,975,579,1075,679,verbal,yes,yes,4,4,29,1,0
469,4$,1.073392799,1,151.6040651,0.004065099,0.499960649,-3.94E-05,spatialInit,NonMatch,B,975,579,1075,679,spatial,yes,no,4,5,37,1,1
470,4$,0.962481132,1,155.1038617,0.00386168,0.499978945,-2.11E-05,spatialBaseline1,NonMatch,E,845,579,945,679,spatial,yes,no,4,5,37,1,1
471,1!,0.630723637,1,158.6036712,0.003671191,0.499971918,-2.81E-05,SpatialDelayTaskCue,Match,T,910,380,1010,480,spatial,yes,no,4,5,37,1,0
472,4$,1.004849149,1,161.7035062,0.003506196,0.499962459,-3.75E-05,SpatialDelayBack,NonMatch,L,805,456,905,556,spatial,yes,no,4,5,37,1,1
473,1!,0.627015589,1,165.2033053,0.003305328,0.499982481,-1.75E-05,SpatialDelayBack,Match,B,1015,456,1115,556,spatial,yes,no,4,5,37,1,0
474,4$,0.834144476,1,168.3031301,0.00313012,0.499974769,-2.52E-05,SpatialDelayBack,NonMatch,E,805,456,905,556,spatial,yes,no,4,5,37,1,1
475,1!,0.756339076,1,172.2029187,0.002918682,0.499980236,-1.98E-05,ReturnSpatialDelayStart,Match,A,910,380,1010,480,spatial,yes,no,4,5,37,1,0
476,1!,0.634464081,1,175.3027366,0.002736617,0.499985082,-1.49E-05,spatialBaseline2,Match,E,975,579,1075,679,spatial,yes,no,4,5,37,1,0
477,1!,0.88186763,1,181.902378,0.002377962,0.499981946,-1.81E-05,verbalInit,Match,T,845,579,945,679,verbal,yes,yes,4,6,45,1,0
478,4$,0.597002373,1,185.0022092,0.002209211,0.499969067,-3.09E-05,verbalBaseline1,NonMatch,E,910,380,1010,480,verbal,yes,yes,4,6,45,1,1
479,4$,1.350196849,0,188.9020059,0.002005906,0.499969352,-3.06E-05,VerbalBranchTaskCue,Match,T,845,579,945,679,verbal,yes,yes,4,6,45,1,1
480,1!,0.831247993,1,192.4018032,0.001803158,0.499973863,-2.61E-05,VerbalBranchBack,Match,A,1015,456,1115,556,verbal,yes,yes,4,6,45,1,0
481,1!,0.637449115,1,196.3015799,0.001579931,0.499974484,-2.55E-05,VerbalBranchBack,Match,B,845,579,945,679,verbal,yes,yes,4,6,45,1,0
482,4$,1.004614041,0,200.2013751,0.001375115,0.499971918,-2.81E-05,ReturnVerbalBranchStart,Match,T,975,579,1075,679,verbal,yes,yes,4,6,45,1,1
483,4$,1.058773667,1,203.7011817,0.001181675,0.499973293,-2.67E-05,verbalBaseline2,NonMatch,B,1015,456,1115,556,verbal,yes,yes,4,6,45,1,1
484,1!,0.873114905,1,211.1007742,0.000774195,0.499968161,-3.18E-05,spatialInit,Match,E,910,380,1010,480,spatial,no,yes,4,7,52,1,0
485,4$,1.100208282,0,214.2006086,0.000608616,0.499958433,-4.16E-05,spatialBaseline1,Match,B,975,579,1075,679,spatial,no,yes,4,7,52,1,1
486,4$,0.956411684,1,217.300416,0.000415967,0.499976479,-2.35E-05,spatialBaseline1,NonMatch,A,1015,456,1115,556,spatial,no,yes,4,7,52,1,1
487,4$,1.207530403,1,220.4002636,0.000263552,0.499969367,-3.06E-05,SpatialSwitchTaskCue,NonMatch,B,805,456,905,556,spatial,no,yes,4,7,52,1,1
488,1!,0.443694883,1,223.5000777,7.77E-05,0.499974484,-2.55E-05,SpatialSwitchBack,Match,L,1015,456,1115,556,spatial,no,yes,4,7,52,1,0
489,1!,0.493775866,1,226.9998836,-0.000116351,0.499975624,-2.44E-05,SpatialSwitchBack,Match,T,845,579,945,679,spatial,no,yes,4,7,52,1,0
490,1!,0.482073929,1,230.0997172,-0.000282821,0.499967356,-3.26E-05,ReturnSpatialSwitchBack,Match,A,910,380,1010,480,spatial,no,yes,4,7,52,1,0
491,1!,0.472185699,1,233.9994903,-0.000509689,0.499988588,-1.14E-05,spatialBaseline2,Match,B,975,579,1075,679,spatial,no,yes,4,7,52,1,0
492,4$,0.775426718,1,237.8992908,-0.000709203,0.499970022,-3.00E-05,spatialBaseline2,NonMatch,A,845,579,945,679,spatial,no,yes,4,7,52,1,1
493,4$,1.326559428,1,244.0989443,-0.001055678,0.499976714,-2.33E-05,spatialInit,NonMatch,A,805,456,905,556,spatial,yes,no,4,8,61,1,1
494,4$,1.154803156,1,247.5987545,-0.001245462,0.499969637,-3.04E-05,spatialBaseline1,NonMatch,T,845,579,945,679,spatial,yes,no,4,8,61,1,1
495,4$,0.978929231,1,250.6985845,-0.001415453,0.499959658,-4.03E-05,SpatialDelayTaskCue,NonMatch,E,805,456,905,556,spatial,yes,no,4,8,61,1,1
496,4$,0.866083344,1,253.7984019,-0.001598074,0.499981896,-1.81E-05,SpatialDelayBack,NonMatch,A,845,579,945,679,spatial,yes,no,4,8,61,1,1
497,4$,1.149209825,1,256.89824,-0.001760032,0.499967591,-3.24E-05,SpatialDelayBack,NonMatch,E,1015,456,1115,556,spatial,yes,no,4,8,61,1,1
498,4$,1.133363052,1,260.39804,-0.00195998,0.49997995,-2.00E-05,ReturnSpatialDelayStart,NonMatch,B,805,456,905,556,spatial,yes,no,4,8,61,1,1
499,4$,1.331564597,1,263.8978521,-0.002147903,0.499972773,-2.72E-05,spatialBaseline2,NonMatch,L,975,579,1075,679,spatial,yes,no,4,8,61,1,1
500,1!,0.554714789,1,267.79764,-0.002360046,0.499969067,-3.09E-05,spatialBaseline2,Match,A,805,456,905,556,spatial,yes,no,4,8,61,1,0
501,4$,1.203986358,1,274.3972688,-0.002731176,0.499972773,-2.72E-05,verbalInit,NonMatch,L,975,579,1075,679,verbal,no,no,4,9,69,1,1
502,4$,0.853166645,1,277.4970898,-0.00291024,0.49997777,-2.22E-05,verbalBaseline1,NonMatch,B,1015,456,1115,556,verbal,no,no,4,9,69,1,1
503,4$,1.386363953,0,281.3968741,-0.003125904,0.499990919,-9.08E-06,VerbalControlTaskCue,Match,L,845,579,945,679,verbal,no,no,4,9,69,1,1
504,1!,1.11648076,1,284.496711,-0.003289003,0.49997762,-2.24E-05,VerbalControlBack,Match,E,1015,456,1115,556,verbal,no,no,4,9,69,1,0
505,1!,0.690647953,1,288.3964852,-0.003514781,0.499988318,-1.17E-05,VerbalControlBack,Match,T,975,579,1075,679,verbal,no,no,4,9,69,1,0
506,4$,0.641798839,1,291.8963047,-0.003695342,0.499960564,-3.94E-05,VerbalControlBack,NonMatch,E,805,456,905,556,verbal,no,no,4,9,69,1,1
507,1!,1.023988224,1,295.7960774,-0.003922645,0.499986893,-1.31E-05,VerbalControlBack,Match,T,975,579,1075,679,verbal,no,no,4,9,69,1,0
508,1!,0.580175055,1,299.6958726,-0.004127376,0.499960229,-3.98E-05,ReturnVerbalControlBack,Match,A,1015,456,1115,556,verbal,no,no,4,9,69,1,0
509,1!,0.561361579,1,303.5956505,-0.004349497,0.499970877,-2.91E-05,verbalBaseline2,Match,B,975,579,1075,679,verbal,no,no,4,9,69,1,0
510,1!,0.721682098,1,310.5952586,-0.00474136,0.49997772,-2.23E-05,verbalInit,Match,T,845,579,945,679,verbal,yes,no,4,10,78,1,0
511,4$,0.841806108,1,314.4950512,-0.004948842,0.499976479,-2.35E-05,verbalBaseline1,NonMatch,L,1015,456,1115,556,verbal,yes,no,4,10,78,1,1
512,4$,1.074021345,1,317.9948628,-0.00513715,0.499970207,-2.98E-05,VerbalDelayTaskCue,NonMatch,T,845,579,945,679,verbal,yes,no,4,10,78,1,1
513,4$,0.758294513,1,321.8946277,-0.005372336,0.499985452,-1.45E-05,VerbalDelayBack,NonMatch,B,910,380,1010,480,verbal,yes,no,4,10,78,1,1
514,4$,1.258433365,1,325.7944336,-0.005566383,0.499958368,-4.16E-05,VerbalDelayBack,NonMatch,E,845,579,945,679,verbal,yes,no,4,10,78,1,1
515,4$,0.814612948,1,329.2942366,-0.00576341,0.499959273,-4.07E-05,ReturnVerbalDelayStart,NonMatch,L,805,456,905,556,verbal,yes,no,4,10,78,1,1
516,4$,1.22056921,1,332.3940686,-0.005931425,0.499959843,-4.02E-05,verbalBaseline2,NonMatch,A,1015,456,1115,556,verbal,yes,no,4,10,78,1,1
517,4$,0.988821822,1,335.893874,-0.006126006,0.499970677,-2.93E-05,verbalBaseline2,NonMatch,E,845,579,945,679,verbal,yes,no,4,10,78,1,1
518,1!,0.715265449,1,343.2934546,-0.006545375,0.49997876,-2.12E-05,spatialInit,Match,A,910,380,1010,480,spatial,no,yes,4,11,86,1,0
519,1!,0.906395234,1,346.3932781,-0.006721873,0.499978475,-2.15E-05,spatialBaseline1,Match,B,975,579,1075,679,spatial,no,yes,4,11,86,1,0
520,1!,0.585457106,1,349.4931111,-0.006888913,0.499974719,-2.53E-05,spatialBaseline1,Match,T,805,456,905,556,spatial,no,yes,4,11,86,1,0
521,1!,0.593739501,1,352.5929392,-0.00706075,0.499970492,-2.95E-05,SpatialSwitchTaskCue,Match,A,1015,456,1115,556,spatial,no,yes,4,11,86,1,0
522,4$,0.848852539,1,356.0927458,-0.007254171,0.516649603,0.016649603,SpatialSwitchStart,NonMatch,T,805,456,905,556,spatial,no,yes,4,11,86,1,1
523,4$,1.265253916,1,359.609217,0.009217045,0.499977335,-2.27E-05,SpatialSwitchBack,NonMatch,A,975,579,1075,679,spatial,no,yes,4,11,86,1,1
524,1!,0.594448931,1,363.5089965,0.008996534,0.499986893,-1.31E-05,SpatialSwitchBack,Match,E,805,456,905,556,spatial,no,yes,4,11,86,1,0
525,4$,1.086565148,1,367.4087901,0.008790143,0.499976159,-2.38E-05,SpatialSwitchStart,NonMatch,T,975,579,1075,679,spatial,no,yes,4,11,86,1,1
526,1!,0.634756949,1,370.9085975,0.008597522,0.499972823,-2.72E-05,ReturnSpatialSwitchBack,Match,B,805,456,905,556,spatial,no,yes,4,11,86,1,0
527,1!,0.555934397,1,374.408411,0.008410974,0.499960078,-3.99E-05,spatialBaseline2,Match,A,1015,456,1115,556,spatial,no,yes,4,11,86,1,0
528,4$,1.345242998,1,381.8079915,0.007991506,0.499971583,-2.84E-05,verbalInit,NonMatch,A,805,456,905,556,verbal,yes,no,4,12,96,1,1
529,4$,0.845408179,1,385.3077961,0.007796105,0.499979815,-2.02E-05,verbalBaseline1,NonMatch,T,1015,456,1115,556,verbal,yes,no,4,12,96,1,1
530,4$,0.764652062,0,388.8076013,0.007601304,0.499984177,-1.58E-05,VerbalDelayTaskCue,Match,A,975,579,1075,679,verbal,yes,no,4,12,96,1,1
531,4$,0.998768682,1,392.7073865,0.007386545,0.499982131,-1.79E-05,VerbalDelayBack,NonMatch,T,1015,456,1115,556,verbal,yes,no,4,12,96,1,1
532,1!,0.62892613,1,395.8072184,0.007218414,0.499970677,-2.93E-05,VerbalDelayBack,Match,A,805,456,905,556,verbal,yes,no,4,12,96,1,0
533,1!,0.927086614,1,399.307028,0.00702796,0.499974584,-2.54E-05,VerbalDelayBack,Match,B,845,579,945,679,verbal,yes,no,4,12,96,1,0
534,4$,0.925222344,1,402.8068337,0.006833664,0.499974198,-2.58E-05,VerbalDelayBack,NonMatch,A,910,380,1010,480,verbal,yes,no,4,12,96,1,1
535,4$,0.98941399,0,406.7066227,0.006622747,0.499966316,-3.37E-05,ReturnVerbalDelayBack,Match,B,975,579,1075,679,verbal,yes,no,4,12,96,1,1
536,1!,1.21243017,1,409.8065641,0.006564059,0.499858448,-0.000141552,verbalBaseline2,Match,L,1015,456,1115,556,verbal,yes,no,4,12,96,1,0
537,4$,1.123819188,1,416.4060868,0.006086823,0.499970172,-2.98E-05,spatialInit,NonMatch,T,805,456,905,556,spatial,yes,yes,4,13,105,1,1
538,4$,1.431954357,1,419.9058925,0.005892492,0.499968496,-3.15E-05,spatialBaseline1,NonMatch,A,910,380,1010,480,spatial,yes,yes,4,13,105,1,1
539,4$,1.411143905,1,423.8056719,0.005671931,0.499970257,-2.97E-05,spatialBaseline1,NonMatch,L,845,579,945,679,spatial,yes,yes,4,13,105,1,1
540,4$,1.317409188,1,426.9055086,0.005508647,0.499974669,-2.53E-05,SpatialBranchTaskCue,NonMatch,E,975,579,1075,679,spatial,yes,yes,4,13,105,1,1
541,1!,0.793585904,1,430.4052983,0.005298271,0.499982011,-1.80E-05,SpatialBranchStart,Match,T,910,380,1010,480,spatial,yes,yes,4,13,105,1,0
542,1!,0.685755969,1,434.3050974,0.005097447,0.499967841,-3.22E-05,SpatialBranchStart,Match,A,910,380,1010,480,spatial,yes,yes,4,13,105,1,0
543,1!,0.54693546,1,438.2048791,0.004879131,0.499975154,-2.48E-05,SpatialBranchStart,Match,T,910,380,1010,480,spatial,yes,yes,4,13,105,1,0
544,4$,0.898025398,1,441.7046847,0.004684651,0.499974954,-2.50E-05,ReturnSpatialBranchStart,NonMatch,L,805,456,905,556,spatial,yes,yes,4,13,105,1,1
545,1!,0.617247722,1,444.8045101,0.004510098,0.499979095,-2.09E-05,spatialBaseline2,Match,A,1015,456,1115,556,spatial,yes,yes,4,13,105,1,0
546,4$,0.628301626,1,447.9043462,0.004346194,0.499973628,-2.64E-05,spatialBaseline2,NonMatch,B,975,579,1075,679,spatial,yes,yes,4,13,105,1,1
547,1!,0.475637842,1,454.903952,0.00395195,0.499981561,-1.84E-05,verbalInit,Match,T,910,380,1010,480,verbal,no,yes,4,14,115,1,0
548,4$,0.830732397,1,458.0037781,0.003778067,0.499969252,-3.07E-05,verbalBaseline1,NonMatch,B,805,456,905,556,verbal,no,yes,4,14,115,1,1
549,4$,1.900889799,0,461.5035935,0.003593515,0.499962744,-3.73E-05,verbalBaseline1,Match,L,975,579,1075,679,verbal,no,yes,4,14,115,1,1
550,4$,1.18409948,1,465.4033677,0.003367687,0.499973393,-2.66E-05,VerbalSwitchTaskCue,NonMatch,A,1015,456,1115,556,verbal,no,yes,4,14,115,1,1
551,1!,0.843241588,1,468.503203,0.003203028,0.499981326,-1.87E-05,VerbalSwitchStart,Match,T,805,456,905,556,verbal,no,yes,4,14,115,1,0
552,4$,0.77741011,1,472.4029942,0.002994156,0.499966266,-3.37E-05,VerbalSwitchStart,NonMatch,L,910,380,1010,480,verbal,no,yes,4,14,115,1,1
553,1!,0.588502581,1,475.5028238,0.002823845,0.499972773,-2.72E-05,VerbalSwitchStart,Match,T,805,456,905,556,verbal,no,yes,4,14,115,1,0
554,1!,0.868825437,1,479.0026297,0.002629734,0.499971683,-2.83E-05,VerbalSwitchBack,Match,A,1015,456,1115,556,verbal,no,yes,4,14,115,1,0
555,4$,0.653943101,1,482.5024349,0.002434918,0.499974719,-2.53E-05,ReturnVerbalSwitchStart,NonMatch,L,975,579,1075,679,verbal,no,yes,4,14,115,1,1
556,1!,0.79710173,1,485.6022609,0.0022609,0.49996558,-3.44E-05,verbalBaseline2,Match,E,805,456,905,556,verbal,no,yes,4,14,115,1,0
557,1!,0.759250654,1,488.7020853,0.002085342,0.499975624,-2.44E-05,verbalBaseline2,Match,T,975,579,1075,679,verbal,no,yes,4,14,115,1,0
558,4$,0.857515143,1,495.7017034,0.001703443,0.499966301,-3.37E-05,spatialInit,NonMatch,L,845,579,945,679,spatial,yes,yes,4,15,126,1,1
559,1!,0.485666761,1,499.6014915,0.0014915,0.499962694,-3.73E-05,spatialBaseline1,Match,A,910,380,1010,480,spatial,yes,yes,4,15,126,1,0
560,4$,0.957813336,1,502.7013061,0.001306063,0.499989794,-1.02E-05,SpatialBranchTaskCue,NonMatch,L,805,456,905,556,spatial,yes,yes,4,15,126,1,1
561,4$,1.317954585,1,506.2011276,0.001127598,0.499961319,-3.87E-05,SpatialBranchBack,NonMatch,A,845,579,945,679,spatial,yes,yes,4,15,126,1,1
562,1!,1.288092101,1,509.3009437,0.000943687,0.499980471,-1.95E-05,SpatialBranchStart,Match,L,910,380,1010,480,spatial,yes,yes,4,15,126,1,0
563,1!,1.394279944,1,513.2007378,0.000737816,0.49996422,-3.58E-05,SpatialBranchStart,Match,B,910,380,1010,480,spatial,yes,yes,4,15,126,1,0
564,4$,1.098443327,1,516.3005541,0.00055409,0.499981291,-1.87E-05,ReturnSpatialBranchStart,NonMatch,E,845,579,945,679,spatial,yes,yes,4,15,126,1,1
565,4$,1.050571,1,519.4003979,0.000397899,0.499974769,-2.52E-05,spatialBaseline2,NonMatch,B,975,579,1075,679,spatial,yes,yes,4,15,126,1,1
566,1!,0.737932759,1,527.1999556,-4.44E-05,0.499987548,-1.25E-05,verbalInit,Match,T,910,380,1010,480,verbal,no,no,4,16,134,1,0
567,4$,0.691077449,1,530.2997982,-0.000201795,0.499962744,-3.73E-05,verbalBaseline1,NonMatch,E,975,579,1075,679,verbal,no,no,4,16,134,1,1
568,1!,0.81126168,1,534.1995875,-0.000412478,0.499956437,-4.36E-05,verbalBaseline1,Match,T,1015,456,1115,556,verbal,no,no,4,16,134,1,0
569,4$,0.747435633,1,538.0993552,-0.000644763,0.49997757,-2.24E-05,VerbalControlTaskCue,NonMatch,B,845,579,945,679,verbal,no,no,4,16,134,1,1
570,1!,1.036611505,1,541.9991426,-0.000857376,0.499970927,-2.91E-05,VerbalControlBack,Match,L,1015,456,1115,556,verbal,no,no,4,16,134,1,0
571,4$,0.584744155,1,545.898924,-0.001075977,0.499969437,-3.06E-05,VerbalControlBack,NonMatch,A,845,579,945,679,verbal,no,no,4,16,134,1,1
572,1!,0.543998878,0,549.7987149,-0.001285084,0.499962794,-3.72E-05,VerbalControlBack,NonMatch,T,910,380,1010,480,verbal,no,no,4,16,134,1,0
573,1!,0.57118375,1,552.898539,-0.001460962,0.499982366,-1.76E-05,VerbalControlBack,Match,A,1015,456,1115,556,verbal,no,no,4,16,134,1,0
574,4$,0.665290188,1,556.7983206,-0.001679377,0.499970392,-2.96E-05,ReturnVerbalControlBack,NonMatch,E,910,380,1010,480,verbal,no,no,4,16,134,1,1
575,4$,1.173468294,1,560.6981109,-0.001889104,0.499969067,-3.09E-05,verbalBaseline2,NonMatch,L,1015,456,1115,556,verbal,no,no,4,16,134,1,1
576,1!,0.900625561,1,564.5978884,-0.002111646,0.499978995,-2.10E-05,verbalBaseline2,Match,E,805,456,905,556,verbal,no,no,4,16,134,1,0
577,4$,0.754948728,1,12.00878362,0.008783621,0.499957948,-4.21E-05,verbalInit,NonMatch,L,845,579,945,679,verbal,yes,yes,5,1,1,1,1
578,1!,0.57619182,1,15.10860769,0.008607693,0.499965025,-3.50E-05,verbalBaseline1,Match,E,975,579,1075,679,verbal,yes,yes,5,1,1,1,0
579,1!,0.443428984,1,18.60841734,0.008417339,0.499968026,-3.20E-05,verbalBaseline1,Match,T,910,380,1010,480,verbal,yes,yes,5,1,1,1,0
580,4$,0.743542205,1,22.50819783,0.008197833,0.500082872,8.29E-05,VerbalBranchTaskCue,NonMatch,L,1015,456,1115,556,verbal,yes,yes,5,1,1,1,1
581,4$,0.905702105,1,26.00799151,0.007991513,0.499988889,-1.11E-05,VerbalBranchStart,NonMatch,E,805,456,905,556,verbal,yes,yes,5,1,1,1,1
582,1!,0.85884465,1,29.90778033,0.007780325,0.499981711,-1.83E-05,VerbalBranchStart,Match,T,910,380,1010,480,verbal,yes,yes,5,1,1,1,0
583,1!,0.630059454,1,33.40758888,0.007588881,0.499979095,-2.09E-05,VerbalBranchStart,Match,T,975,579,1075,679,verbal,yes,yes,5,1,1,1,0
584,1!,1.298158133,0,36.90738741,0.007387407,0.499972723,-2.73E-05,VerbalBranchBack,NonMatch,E,805,456,905,556,verbal,yes,yes,5,1,1,1,0
585,1!,0.774351791,0,40.80717817,0.007178165,0.499971583,-2.84E-05,ReturnVerbalBranchStart,NonMatch,B,1015,456,1115,556,verbal,yes,yes,5,1,1,1,0
586,4$,1.280439962,1,44.30709164,0.007091637,0.499862224,-0.000137776,verbalBaseline2,NonMatch,T,845,579,945,679,verbal,yes,yes,5,1,1,1,1
587,4$,0.749721986,1,47.80678245,0.006782446,0.499985938,-1.41E-05,verbalBaseline2,NonMatch,B,975,579,1075,679,verbal,yes,yes,5,1,1,1,1
588,1!,0.702002103,1,54.00644476,0.00644476,0.499970777,-2.92E-05,spatialInit,Match,E,910,380,1010,480,spatial,no,yes,5,2,12,1,0
589,1!,0.603134022,1,57.50625207,0.006252074,0.499962174,-3.78E-05,spatialBaseline1,Match,B,975,579,1075,679,spatial,no,yes,5,2,12,1,0
590,1!,0.634316184,1,61.40604174,0.006041742,0.499969922,-3.01E-05,spatialBaseline1,Match,L,805,456,905,556,spatial,no,yes,5,2,12,1,0
591,1!,0.594517555,1,65.30581085,0.005810852,0.499975624,-2.44E-05,SpatialSwitchTaskCue,Match,A,1015,456,1115,556,spatial,no,yes,5,2,12,1,0
592,1!,0.445703078,1,69.20560144,0.00560144,0.499974434,-2.56E-05,SpatialSwitchBack,Match,E,845,579,945,679,spatial,no,yes,5,2,12,1,0
593,4$,0.753818306,1,73.10538811,0.005388107,0.499971062,-2.89E-05,SpatialSwitchStart,NonMatch,T,975,579,1075,679,spatial,no,yes,5,2,12,1,1
594,4$,1.098032582,1,77.00517083,0.005170832,0.499974198,-2.58E-05,SpatialSwitchStart,NonMatch,L,1015,456,1115,556,spatial,no,yes,5,2,12,1,1
595,4$,0.98225615,1,80.10498508,0.004985075,0.499981781,-1.82E-05,ReturnSpatialSwitchBack,NonMatch,A,910,380,1010,480,spatial,no,yes,5,2,12,1,1
596,4$,0.871334084,1,83.20482131,0.004821306,0.49996526,-3.47E-05,spatialBaseline2,NonMatch,T,805,456,905,556,spatial,no,yes,5,2,12,1,1
597,4$,0.915652287,1,90.60440979,0.004409785,0.499975909,-2.41E-05,verbalInit,NonMatch,A,975,579,1075,679,verbal,no,no,5,3,21,1,1
598,1!,0.834831802,1,94.10422034,0.004220336,0.499974769,-2.52E-05,verbalBaseline1,Match,B,805,456,905,556,verbal,no,no,5,3,21,1,0
599,4$,0.672094909,1,98.00400734,0.004007338,0.499965025,-3.50E-05,VerbalControlTaskCue,NonMatch,A,975,579,1075,679,verbal,no,no,5,3,21,1,1
600,1!,0.450216885,1,101.9037857,0.003785737,0.499969687,-3.03E-05,VerbalControlBack,Match,B,805,456,905,556,verbal,no,no,5,3,21,1,0
601,1!,1.160326066,1,105.4035913,0.003591256,0.499967876,-3.21E-05,VerbalControlBack,Match,L,975,579,1075,679,verbal,no,no,5,3,21,1,0
602,4$,0.846455922,1,108.5034088,0.003408755,0.499986608,-1.34E-05,ReturnVerbalControlBack,NonMatch,A,910,380,1010,480,verbal,no,no,5,3,21,1,1
603,4$,0.974753689,0,112.403207,0.003207041,0.499964405,-3.56E-05,verbalBaseline2,Match,B,805,456,905,556,verbal,no,no,5,3,21,1,1
604,1!,0.536017113,1,119.8027902,0.002790238,0.499972103,-2.79E-05,spatialInit,Match,T,910,380,1010,480,spatial,yes,no,5,4,28,1,0
605,1!,0.741225766,1,122.9026234,0.002623383,0.499968211,-3.18E-05,spatialBaseline1,Match,B,975,579,1075,679,spatial,yes,no,5,4,28,1,0
606,1!,0.575334254,1,126.0024472,0.002447205,0.499971833,-2.82E-05,spatialBaseline1,Match,E,805,456,905,556,spatial,yes,no,5,4,28,1,0
607,4$,0.945452348,1,129.1022669,0.002266865,0.499983237,-1.68E-05,SpatialDelayTaskCue,NonMatch,A,975,579,1075,679,spatial,yes,no,5,4,28,1,1
608,4$,0.812588622,1,132.6020827,0.002082748,0.499974198,-2.58E-05,SpatialDelayBack,NonMatch,L,845,579,945,679,spatial,yes,no,5,4,28,1,1
609,4$,0.813765045,0,136.1018835,0.001883505,0.49997881,-2.12E-05,SpatialDelayBack,Match,A,910,380,1010,480,spatial,yes,no,5,4,28,1,1
610,1!,0.98888627,1,139.2017306,0.00173057,0.499970507,-2.95E-05,ReturnSpatialDelayBack,Match,L,975,579,1075,679,spatial,yes,no,5,4,28,1,0
611,4$,0.710054573,1,143.1015062,0.001506183,0.499961319,-3.87E-05,spatialBaseline2,NonMatch,E,845,579,945,679,spatial,yes,no,5,4,28,1,1
612,4$,0.696288375,1,147.0012782,0.001278209,0.499989174,-1.08E-05,spatialBaseline2,NonMatch,L,1015,456,1115,556,spatial,yes,no,5,4,28,1,1
613,4$,0.994448609,1,153.6010322,0.001032154,0.499853986,-0.000146014,verbalInit,NonMatch,B,975,579,1075,679,verbal,no,yes,5,5,37,1,1
614,1!,0.642704452,0,156.7007483,0.000748322,0.499967406,-3.26E-05,verbalBaseline1,NonMatch,T,805,456,905,556,verbal,no,yes,5,5,37,1,0
615,4$,0.989821333,1,159.8005724,0.000572444,0.499970777,-2.92E-05,VerbalSwitchTaskCue,NonMatch,B,910,380,1010,480,verbal,no,yes,5,5,37,1,1
616,4$,0.562022526,0,163.7003575,0.00035745,0.499984227,-1.58E-05,VerbalSwitchBack,Match,L,845,579,945,679,verbal,no,yes,5,5,37,1,1
617,4$,1.06528418,1,167.600149,0.000149048,0.499958483,-4.15E-05,VerbalSwitchStart,NonMatch,B,805,456,905,556,verbal,no,yes,5,5,37,1,1
618,1!,1.2833641,1,170.6999729,-2.71E-05,0.499975724,-2.43E-05,VerbalSwitchStart,Match,T,975,579,1075,679,verbal,no,yes,5,5,37,1,0
619,4$,0.812529236,1,174.199778,-0.000222031,0.499966301,-3.37E-05,VerbalSwitchStart,NonMatch,L,805,456,905,556,verbal,no,yes,5,5,37,1,1
620,1!,0.853653881,1,178.0995589,-0.000441102,0.499976244,-2.38E-05,ReturnVerbalSwitchBack,Match,E,1015,456,1115,556,verbal,no,yes,5,5,37,1,0
621,4$,0.665844423,1,181.5993686,-0.000631406,0.499981091,-1.89E-05,verbalBaseline2,NonMatch,B,910,380,1010,480,verbal,no,yes,5,5,37,1,1
622,4$,0.909078647,1,184.6991917,-0.00080829,0.49997948,-2.05E-05,verbalBaseline2,NonMatch,E,805,456,905,556,verbal,no,yes,5,5,37,1,1
623,4$,0.764329144,1,192.0987871,-0.001212868,0.499976379,-2.36E-05,spatialInit,NonMatch,B,1015,456,1115,556,spatial,no,no,5,6,47,1,1
624,4$,0.796465786,1,195.1986171,-0.001382909,0.499977335,-2.27E-05,spatialBaseline1,NonMatch,T,975,579,1075,679,spatial,no,no,5,6,47,1,1
625,4$,0.799625351,0,199.0984091,-0.001590861,0.499966971,-3.30E-05,SpatialControlTaskCue,Match,L,805,456,905,556,spatial,no,no,5,6,47,1,1
626,4$,0.625900177,1,202.5982082,-0.001791764,0.499973058,-2.69E-05,SpatialControlBack,NonMatch,A,975,579,1075,679,spatial,no,no,5,6,47,1,1
627,4$,0.697956882,1,205.6980433,-0.001956723,0.49997829,-2.17E-05,SpatialControlBack,NonMatch,B,1015,456,1115,556,spatial,no,no,5,6,47,1,1
628,1!,0.640117168,1,209.1978441,-0.002155851,0.499970207,-2.98E-05,SpatialControlBack,Match,A,845,579,945,679,spatial,no,no,5,6,47,1,0
629,1!,0.511267232,1,212.6976599,-0.002340118,0.499958468,-4.15E-05,SpatialControlBack,Match,T,910,380,1010,480,spatial,no,no,5,6,47,1,0
630,4$,0.631367878,1,216.1974526,-0.002547443,0.499985217,-1.48E-05,ReturnSpatialControlBack,NonMatch,A,845,579,945,679,spatial,no,no,5,6,47,1,1
631,4$,0.955591686,1,219.6972712,-0.002728809,0.499966401,-3.36E-05,spatialBaseline2,NonMatch,T,1015,456,1115,556,spatial,no,no,5,6,47,1,1
632,1!,0.530750088,1,223.5970424,-0.002957638,0.499972303,-2.77E-05,spatialBaseline2,Match,L,845,579,945,679,spatial,no,no,5,6,47,1,0
633,1!,0.69913339,1,229.7967026,-0.003297421,0.499971347,-2.87E-05,spatialInit,Match,T,910,380,1010,480,spatial,yes,yes,5,7,57,1,0
634,1!,0.605235311,1,232.8965305,-0.003469543,0.499975909,-2.41E-05,spatialBaseline1,Match,E,975,579,1075,679,spatial,yes,yes,5,7,57,1,0
635,4$,0.806364414,1,236.3963432,-0.003656761,0.499973158,-2.68E-05,spatialBaseline1,NonMatch,T,1015,456,1115,556,spatial,yes,yes,5,7,57,1,1
636,1!,0.890496722,1,239.4961638,-0.003836161,0.499975759,-2.42E-05,SpatialBranchTaskCue,Match,B,845,579,945,679,spatial,yes,yes,5,7,57,1,0
637,1!,0.560681045,1,243.3959481,-0.00405191,0.499975624,-2.44E-05,SpatialBranchStart,Match,A,910,380,1010,480,spatial,yes,yes,5,7,57,1,0
638,4$,0.630856894,1,246.8957665,-0.004233526,0.499964755,-3.52E-05,SpatialBranchStart,NonMatch,L,805,456,905,556,spatial,yes,yes,5,7,57,1,1
639,4$,0.898926464,1,249.9955842,-0.004415812,0.499974869,-2.51E-05,SpatialBranchStart,NonMatch,E,845,579,945,679,spatial,yes,yes,5,7,57,1,1
640,4$,1.25615751,1,253.0954132,-0.004586793,0.499975959,-2.40E-05,ReturnSpatialBranchBack,NonMatch,A,1015,456,1115,556,spatial,yes,yes,5,7,57,1,1
641,1!,0.919259909,1,256.5952367,-0.004763278,0.499957107,-4.29E-05,spatialBaseline2,Match,B,845,579,945,679,spatial,yes,yes,5,7,57,1,0
642,4$,0.92364616,1,264.3947888,-0.005211212,0.499973913,-2.61E-05,verbalInit,NonMatch,L,845,579,945,679,verbal,no,yes,5,8,66,1,1
643,4$,0.70775747,0,267.4946169,-0.005383099,0.499985552,-1.44E-05,verbalBaseline1,Match,E,975,579,1075,679,verbal,no,yes,5,8,66,1,1
644,4$,0.629927702,0,270.594453,-0.005547018,0.499974349,-2.57E-05,verbalBaseline1,Match,T,1015,456,1115,556,verbal,no,yes,5,8,66,1,1
645,1!,0.744089462,1,274.494242,-0.005757971,0.499971783,-2.82E-05,VerbalSwitchTaskCue,Match,A,845,579,945,679,verbal,no,yes,5,8,66,1,0
646,1!,0.861302549,0,278.3940212,-0.005978802,0.499958833,-4.12E-05,VerbalSwitchStart,NonMatch,B,1015,456,1115,556,verbal,no,yes,5,8,66,1,0
647,4$,1.285411875,1,281.8938232,-0.006176804,0.49997737,-2.26E-05,VerbalSwitchStart,NonMatch,E,910,380,1010,480,verbal,no,yes,5,8,66,1,1
648,4$,1.288575581,1,285.7936048,-0.006395169,0.499984547,-1.55E-05,ReturnVerbalSwitchStart,NonMatch,B,975,579,1075,679,verbal,no,yes,5,8,66,1,1
649,4$,1.301803039,0,289.6933907,-0.006609258,0.499971147,-2.89E-05,verbalBaseline2,Match,L,910,380,1010,480,verbal,no,yes,5,8,66,1,1
650,1!,0.945084889,1,296.6930089,-0.006991057,0.499968616,-3.14E-05,spatialInit,Match,E,910,380,1010,480,spatial,no,no,5,9,74,1,0
651,1!,0.956624604,1,300.209483,0.009483029,0.483307782,-0.016692218,spatialBaseline1,Match,T,975,579,1075,679,spatial,no,no,5,9,74,1,0
652,4$,0.699735892,1,303.3093109,0.009310907,0.499974719,-2.53E-05,SpatialControlTaskCue,NonMatch,A,1015,456,1115,556,spatial,no,no,5,9,74,1,1
653,1!,0.633011951,1,306.8091134,0.009113425,0.499974919,-2.51E-05,SpatialControlBack,Match,B,845,579,945,679,spatial,no,no,5,9,74,1,0
654,4$,0.780179373,1,310.7089074,0.008907419,0.499967876,-3.21E-05,SpatialControlBack,NonMatch,L,1015,456,1115,556,spatial,no,no,5,9,74,1,1
655,1!,0.769315211,1,313.8087248,0.008724834,0.49997886,-2.11E-05,SpatialControlBack,Match,E,845,579,945,679,spatial,no,no,5,9,74,1,0
656,4$,0.393384394,0,316.9085612,0.008561215,0.499966736,-3.33E-05,ReturnSpatialControlBack,Match,B,910,380,1010,480,spatial,no,no,5,9,74,1,1
657,1!,0.534562767,1,320.4083699,0.00836987,0.499967441,-3.26E-05,spatialBaseline2,Match,A,975,579,1075,679,spatial,no,no,5,9,74,1,0
658,1!,0.357707478,1,324.3081565,0.008156537,0.499969587,-3.04E-05,spatialBaseline2,Match,L,805,456,905,556,spatial,no,no,5,9,74,1,0
659,1!,0.818144034,1,332.1077248,0.007724788,0.499965931,-3.41E-05,verbalInit,Match,T,910,380,1010,480,verbal,yes,yes,5,10,83,1,0
660,4$,0.728306736,1,335.6075307,0.007530727,0.499973963,-2.60E-05,verbalBaseline1,NonMatch,L,975,579,1075,679,verbal,yes,yes,5,10,83,1,1
661,1!,0.658439951,1,339.1073391,0.007339132,0.499966081,-3.39E-05,verbalBaseline1,Match,E,1015,456,1115,556,verbal,yes,yes,5,10,83,1,0
662,1!,0.738570408,1,342.2071562,0.007156211,0.499980921,-1.91E-05,VerbalBranchTaskCue,Match,T,845,579,945,679,verbal,yes,yes,5,10,83,1,0
663,4$,0.745788459,1,346.1069485,0.00694846,0.499971347,-2.87E-05,VerbalBranchBack,NonMatch,L,1015,456,1115,556,verbal,yes,yes,5,10,83,1,1
664,4$,0.979927837,1,349.2067794,0.006779424,0.499974584,-2.54E-05,VerbalBranchStart,NonMatch,A,845,579,945,679,verbal,yes,yes,5,10,83,1,1
665,4$,0.935094978,1,352.706584,0.006583988,0.499962409,-3.76E-05,VerbalBranchStart,NonMatch,B,975,579,1075,679,verbal,yes,yes,5,10,83,1,1
666,1!,0.785225847,1,356.2063862,0.006386221,0.499973913,-2.61E-05,ReturnVerbalBranchStart,Match,T,845,579,945,679,verbal,yes,yes,5,10,83,1,0
667,1!,0.647411556,1,359.7061999,0.006199908,0.49996432,-3.57E-05,verbalBaseline2,Match,A,910,380,1010,480,verbal,yes,yes,5,10,83,1,0
668,4$,0.811558805,1,362.8060212,0.006021214,0.499968782,-3.12E-05,verbalBaseline2,NonMatch,L,805,456,905,556,verbal,yes,yes,5,10,83,1,1
669,1!,0.760730694,1,369.0056822,0.005682167,0.499975004,-2.50E-05,spatialInit,Match,T,910,380,1010,480,spatial,yes,no,5,11,93,1,0
670,4$,0.710913009,1,372.9054659,0.005465882,0.499964975,-3.50E-05,spatialBaseline1,NonMatch,L,1015,456,1115,556,spatial,yes,no,5,11,93,1,1
671,4$,0.984042973,1,376.005294,0.005293995,0.499974148,-2.59E-05,SpatialDelayTaskCue,NonMatch,A,805,456,905,556,spatial,yes,no,5,11,93,1,1
672,4$,1.211209001,0,379.1051359,0.005135878,0.499966986,-3.30E-05,SpatialDelayBack,Match,E,1015,456,1115,556,spatial,yes,no,5,11,93,1,1
673,4$,0.956436202,1,382.2049505,0.004950456,0.499976009,-2.40E-05,SpatialDelayBack,NonMatch,B,975,579,1075,679,spatial,yes,no,5,11,93,1,1
674,1!,0.784482776,1,385.704874,0.004874007,0.499980706,-1.93E-05,ReturnSpatialDelayStart,Match,L,910,380,1010,480,spatial,yes,no,5,11,93,1,0
675,4$,0.797663862,1,389.604554,0.004554046,0.499962794,-3.72E-05,spatialBaseline2,NonMatch,A,845,579,945,679,spatial,yes,no,5,11,93,1,1
676,4$,0.827088817,1,396.2041753,0.004175269,0.499985417,-1.46E-05,spatialInit,NonMatch,E,1015,456,1115,556,spatial,yes,yes,5,12,100,1,1
677,4$,0.617226389,1,399.7039985,0.003998549,0.499959053,-4.09E-05,spatialBaseline1,NonMatch,A,805,456,905,556,spatial,yes,yes,5,12,100,1,1
678,1!,0.553296665,1,403.2037931,0.003793135,0.499969972,-3.00E-05,SpatialBranchTaskCue,Match,L,1015,456,1115,556,spatial,yes,yes,5,12,100,1,0
679,1!,0.761500145,1,406.7036077,0.003607727,0.499966921,-3.31E-05,SpatialBranchStart,Match,T,910,380,1010,480,spatial,yes,yes,5,12,100,1,0
680,4$,0.753628194,1,410.6033822,0.003382234,0.499972873,-2.71E-05,SpatialBranchStart,NonMatch,B,805,456,905,556,spatial,yes,yes,5,12,100,1,1
681,1!,0.556892669,1,413.7032182,0.003218195,0.49996303,-3.70E-05,SpatialBranchStart,Match,T,910,380,1010,480,spatial,yes,yes,5,12,100,1,0
682,4$,1.042975696,1,416.803038,0.00303799,0.499982987,-1.70E-05,SpatialBranchBack,NonMatch,E,845,579,945,679,spatial,yes,yes,5,12,100,1,1
683,4$,0.794106047,1,420.3028494,0.002849397,0.499967641,-3.24E-05,ReturnSpatialBranchBack,NonMatch,T,1015,456,1115,556,spatial,yes,yes,5,12,100,1,1
684,1!,0.906248592,1,423.4026783,0.002678265,0.499978425,-2.16E-05,spatialBaseline2,Match,A,845,579,945,679,spatial,yes,yes,5,12,100,1,0
685,1!,0.560412381,1,426.5025064,0.002506378,0.499974148,-2.59E-05,spatialBaseline2,Match,E,910,380,1010,480,spatial,yes,yes,5,12,100,1,0
686,4$,0.964726916,1,433.9020985,0.002098514,0.499982801,-1.72E-05,verbalInit,NonMatch,A,805,456,905,556,verbal,yes,no,5,13,110,1,1
687,4$,0.987935211,0,437.8018795,0.001879528,0.499977335,-2.27E-05,verbalBaseline1,Match,B,975,579,1075,679,verbal,yes,no,5,13,110,1,1
688,1!,0.571090238,1,441.3016849,0.001684947,0.499987078,-1.29E-05,verbalBaseline1,Match,L,805,456,905,556,verbal,yes,no,5,13,110,1,0
689,1!,1.102184026,1,445.2014799,0.001479882,0.499961419,-3.86E-05,VerbalDelayTaskCue,Match,E,910,380,1010,480,verbal,yes,no,5,13,110,1,0
690,1!,1.070375919,1,448.3013069,0.001306905,0.499982266,-1.77E-05,VerbalDelayBack,Match,T,975,579,1075,679,verbal,yes,no,5,13,110,1,0
691,4$,0.821569042,1,452.2010862,0.001086159,0.499974819,-2.52E-05,VerbalDelayBack,NonMatch,B,1015,456,1115,556,verbal,yes,no,5,13,110,1,1
692,4$,1.347772407,1,455.3009206,0.000920594,0.4999637,-3.63E-05,VerbalDelayBack,NonMatch,E,845,579,945,679,verbal,yes,no,5,13,110,1,1
693,1!,0.694950485,1,459.2007117,0.000711687,0.499978275,-2.17E-05,VerbalDelayBack,Match,T,805,456,905,556,verbal,yes,no,5,13,110,1,0
694,1!,0.930981603,1,462.700507,0.000507028,0.499981476,-1.85E-05,ReturnVerbalDelayStart,Match,T,910,380,1010,480,verbal,yes,no,5,13,110,1,0
695,1!,0.578206808,1,465.8003401,0.000340087,0.499974669,-2.53E-05,verbalBaseline2,Match,A,975,579,1075,679,verbal,yes,no,5,13,110,1,0
696,1!,0.916580923,1,472.3999641,-3.59E-05,0.499973343,-2.67E-05,spatialInit,Match,L,910,380,1010,480,spatial,no,yes,5,14,120,1,0
697,1!,0.691710137,1,475.4997999,-0.000200078,0.499975859,-2.41E-05,spatialBaseline1,Match,B,975,579,1075,679,spatial,no,yes,5,14,120,1,0
698,4$,0.797892377,1,479.3995854,-0.000414602,0.499972018,-2.80E-05,SpatialSwitchTaskCue,NonMatch,L,1015,456,1115,556,spatial,no,yes,5,14,120,1,1
699,4$,0.877023073,1,483.2993661,-0.000633872,0.499982616,-1.74E-05,SpatialSwitchStart,NonMatch,B,805,456,905,556,spatial,no,yes,5,14,120,1,1
700,1!,0.535142291,1,487.199156,-0.00084397,0.499973258,-2.67E-05,SpatialSwitchStart,Match,E,910,380,1010,480,spatial,no,yes,5,14,120,1,0
701,4$,0.94942854,1,491.0989347,-0.001065286,0.499974769,-2.52E-05,SpatialSwitchStart,NonMatch,T,805,456,905,556,spatial,no,yes,5,14,120,1,1
702,1!,0.505580118,1,494.5987466,-0.00125341,0.499969722,-3.03E-05,ReturnSpatialSwitchStart,Match,A,910,380,1010,480,spatial,no,yes,5,14,120,1,0
703,4$,0.866666524,1,498.4985314,-0.001468589,0.499977099,-2.29E-05,spatialBaseline2,NonMatch,L,1015,456,1115,556,spatial,no,yes,5,14,120,1,1
704,4$,0.638834082,0,502.3983219,-0.001678116,0.499976579,-2.34E-05,spatialBaseline2,Match,T,845,579,945,679,spatial,no,yes,5,14,120,1,1
705,4$,1.025181839,1,509.3979333,-0.002066657,0.499961604,-3.84E-05,verbalInit,NonMatch,L,805,456,905,556,verbal,yes,no,5,15,129,1,1
706,4$,1.29732232,1,512.4977505,-0.002249478,0.499975339,-2.47E-05,verbalBaseline1,NonMatch,A,845,579,945,679,verbal,yes,no,5,15,129,1,1
707,1!,0.717465197,0,516.3975422,-0.00245778,0.500090584,9.06E-05,verbalBaseline1,NonMatch,T,805,456,905,556,verbal,yes,no,5,15,129,1,0
708,1!,0.858647881,1,519.4973687,-0.002631312,0.499974484,-2.55E-05,VerbalDelayTaskCue,Match,A,975,579,1075,679,verbal,yes,no,5,15,129,1,0
709,4$,0.783756625,1,522.5971999,-0.002800063,0.499970492,-2.95E-05,VerbalDelayBack,NonMatch,L,1015,456,1115,556,verbal,yes,no,5,15,129,1,1
710,4$,0.871960164,1,526.4969843,-0.003015727,0.499978795,-2.12E-05,VerbalDelayBack,NonMatch,T,975,579,1075,679,verbal,yes,no,5,15,129,1,1
711,1!,0.595109643,0,529.5968124,-0.003187614,0.499971633,-2.84E-05,ReturnVerbalDelayStart,NonMatch,E,910,380,1010,480,verbal,yes,no,5,15,129,1,0
712,4$,0.918247704,1,532.6966404,-0.003359601,0.499975909,-2.41E-05,verbalBaseline2,NonMatch,A,805,456,905,556,verbal,yes,no,5,15,129,1,1
713,4$,1.192456386,1,539.6963779,-0.003622078,0.499860679,-0.000139321,verbalInit,NonMatch,L,910,380,1010,480,verbal,no,no,5,16,137,1,1
714,1!,1.077700143,1,542.7960871,-0.003912852,0.499968782,-3.12E-05,verbalBaseline1,Match,E,1015,456,1115,556,verbal,no,no,5,16,137,1,0
715,1!,0.718872586,1,546.2958922,-0.004107818,0.499968076,-3.19E-05,VerbalControlTaskCue,Match,T,975,579,1075,679,verbal,no,no,5,16,137,1,0
716,1!,0.426001566,1,550.1956879,-0.004312113,0.499961504,-3.85E-05,VerbalControlBack,Match,A,910,380,1010,480,verbal,no,no,5,16,137,1,0
717,4$,0.646135497,1,553.2955011,-0.004498925,0.499973158,-2.68E-05,VerbalControlBack,NonMatch,T,845,579,945,679,verbal,no,no,5,16,137,1,1
718,1!,0.443331915,1,556.7953266,-0.004673414,0.499965175,-3.48E-05,ReturnVerbalControlBack,Match,A,1015,456,1115,556,verbal,no,no,5,16,137,1,0
719,4$,0.749510777,1,560.2951202,-0.004879769,0.499978125,-2.19E-05,verbalBaseline2,NonMatch,E,910,380,1010,480,verbal,no,no,5,16,137,1,1
720,1!,0.566707543,1,564.1949134,-0.005086645,0.499974819,-2.52E-05,verbalBaseline2,Match,T,1015,456,1115,556,verbal,no,no,5,16,137,1,0
721,4$,0.972727921,1,12.00310585,0.003105847,0.499985166,-1.48E-05,spatialInit,NonMatch,T,975,579,1075,679,spatial,no,no,6,1,1,1,1
722,1!,0.676931302,1,15.5029213,0.002921295,0.499967641,-3.24E-05,spatialBaseline1,Match,A,805,456,905,556,spatial,no,no,6,1,1,1,0
723,1!,0.614080397,1,19.00272301,0.002723008,0.499962174,-3.78E-05,spatialBaseline1,Match,B,1015,456,1115,556,spatial,no,no,6,1,1,1,0
